%DLR Intertial Motion Unit recording log.  Contain the  information of the IMU .
Angular Velocity Covariance,0.000169,0.0,0.0,0.0,0.000169,0.0,0.0,0.0,0.000169
Acceleration Covariance,0.006889,0.0,0.0,0.0,0.006889,0.0,0.0,0.0,0.006889
MessageSequence,SystemTimeSecs,SystemTimenSecs,TimeStampSecs,TimeStampnSecs,ROT_X,ROT_Y,ROT_Z,ROT_W,ROTVEL_X,ROTVEL_Y,ROTVEL_Z,ACC_X,ACC_Y,ACC_Z
3936,1347543958,286669969,1346678032,171988964,-0.0148584242815,0.0023331535482,-0.648123309735,0.76138686553,0.00968657734857,-0.014398966329,0.00314159265359,0.18639,-0.27468,9.76095
3937,1347543958,317071914,1346678032,191994905,-0.0150482720207,0.00237719111464,-0.647990413804,0.761496107731,-0.0219911485751,-0.00785398163397,-0.00785398163397,0.16677,-0.25506,9.78057
3938,1347543958,338799953,1346678032,211998940,-0.014992377092,0.0024397309431,-0.647790614409,0.761666985122,-0.0109955742876,0.0204203522483,0.0170169602069,0.12753,-0.27468,9.77076
3939,1347543958,380009889,1346678032,232004881,-0.0150597154604,0.00249100464865,-0.6475244881,0.761891748989,0.0191113553093,-0.00235619449019,-0.0246091424531,0.18639,-0.30411,9.75114
3940,1347543958,385806083,1346678032,252010822,-0.0150599327842,0.00248969043107,-0.647457998036,0.761948253259,0.00418879020479,-0.0151843644924,0.0280125344945,0.08829,-0.20601,9.74133
3941,1347543958,393153905,1346678032,272017002,-0.0149382591251,0.00249187191376,-0.647058744131,0.762289722239,-0.0112573736754,-0.00968657734857,0.0170169602069,0.14715,-0.24525,9.77076
3942,1347543958,405209064,1346678032,292022943,-0.0150614508396,0.00248049037769,-0.646992429562,0.762343620656,0.0115191730632,0.00680678408278,-0.0308923277603,0.20601,-0.26487,9.80019
3943,1347543958,432100057,1346678032,312022924,-0.0150056700194,0.00254310061997,-0.646792395941,0.762514235316,0.00366519142919,0.00418879020479,0.0437204977625,0.06867,-0.21582,9.78057
3944,1347543958,445099115,1346678032,332022905,-0.0148838107557,0.00254671670519,-0.646459413655,0.762798933473,-0.00392699081699,-0.00471238898038,-0.0256563400043,0.0981,-0.28449,9.77076
3945,1347543958,465125083,1346678032,352020979,-0.0148939765852,0.00266970890413,-0.646458748197,0.76279887847,-0.0191113553093,0.00942477796077,-0.01308996939,0.0981,-0.24525,9.77076
3946,1347543958,484972000,1346678032,372020960,-0.0147719432212,0.00267471650877,-0.646192231542,0.763027021461,-0.00314159265359,0.00994837673637,0.0479092879672,0.10791,-0.22563,9.79038
3947,1347543958,505287885,1346678032,392020941,-0.0148392443276,0.00272722259714,-0.645992213857,0.763194875979,-0.00759218224618,-0.001308996939,-0.0280125344945,0.16677,-0.2943,9.81
3948,1347543958,537940025,1346678032,412020922,-0.0147831276554,0.00279254491887,-0.645925158618,0.763252481354,-0.00994837673637,0.00680678408278,0.0306305283725,0.05886,-0.16677,9.81981
3949,1347543958,575974941,1346678032,432018995,-0.0146611438914,0.00279767708927,-0.645658483687,0.763480416452,0.00863937979737,0.00549778714378,0.0109955742876,0.11772,-0.15696,9.81
3950,1347543958,582923889,1346678032,452018976,-0.0146506158132,0.00267597423901,-0.645725794333,0.76342412665,-0.0149225651046,0.00340339204139,-0.0479092879672,0.14715,-0.22563,9.77076
3951,1347543958,588992118,1346678032,472018957,-0.014528359596,0.00268245274716,-0.645525699391,0.763595640794,0.00733038285838,0.0109955742876,0.0500036830696,0.0981,-0.20601,9.74133
3952,1347543958,605192899,1346678032,492018938,-0.0144628677346,0.00261980962577,-0.645192687579,0.76387849685,0.0123045712266,-0.00968657734857,-0.0287979326579,0.17658,-0.21582,9.77076
3953,1347543958,632035017,1346678032,512018919,-0.0143295455665,0.00250720221936,-0.645193134995,0.763881009462,-0.00157079632679,-0.000523598775598,-0.00575958653158,0.08829,-0.20601,9.80019
3954,1347543958,644999980,1346678032,532016993,-0.0142076898652,0.00251137104593,-0.644859561148,0.764164891211,-0.000523598775598,0.000261799387799,0.0306305283725,0.07848,-0.18639,9.79038
3955,1347543958,664983987,1346678032,552016973,-0.0140849611457,0.00252056345548,-0.644792667862,0.764223577299,-0.00968657734857,0.00418879020479,-0.0390081087821,0.11772,-0.23544,9.75114
3956,1347543958,684969902,1346678032,572016954,-0.0140926192535,0.00265829245217,-0.645591952564,0.763547878229,0.00994837673637,0.001308996939,0.0397935069455,0.05886,-0.27468,9.73152
3957,1347543958,706764936,1346678032,592016935,-0.0139789902054,0.00279645629178,-0.645857565868,0.763324814398,-0.0128281700022,0.00654498469498,-0.0109955742876,0.12753,-0.20601,9.75114
3958,1347543958,744970083,1346678032,612015009,-0.0139087788023,0.00275830348291,-0.646856445269,0.762479951768,-0.0010471975512,0.00392699081699,-0.0240855436775,0.0981,-0.22563,9.75114
3959,1347543958,775832891,1346678032,632014990,-0.0138528340647,0.00282243431239,-0.646722919383,0.762593993156,0.0138753675534,-0.00811578102177,0.0382227106187,0.06867,-0.28449,9.77076
3960,1347543958,782588005,1346678032,652014971,-0.0138070563764,0.00300957846234,-0.646588660069,0.762707946925,-0.00471238898038,0.0109955742876,-0.0319395253115,0.11772,-0.24525,9.75114
3961,1347543958,788836002,1346678032,672014952,-0.0138144617639,0.00314462865634,-0.647253272107,0.762143341966,0.010471975512,-0.00183259571459,-0.00654498469498,0.07848,-0.26487,9.72171
3962,1347543958,817466020,1346678032,692014933,-0.0136972142383,0.00329559872628,-0.648249421258,0.761297716527,-0.0102101761242,-0.000523598775598,0.000785398163397,0.07848,-0.23544,9.76095
3963,1347543958,831542015,1346678032,712013006,-0.0135701699545,0.00332205468982,-0.649178854535,0.7605074814,0.00287979326579,-0.00366519142919,-0.0332485222505,0.08829,-0.21582,9.77076
3964,1347543958,844593048,1346678032,732012987,-0.0135795949217,0.00344626690261,-0.649244445842,0.76045076592,-0.00497418836818,0.0010471975512,0.0201585528605,0.10791,-0.33354,9.78057
3965,1347543958,864923954,1346678032,752012968,-0.0135902438071,0.00356573697526,-0.649044543577,0.760620648712,0.00837758040957,-0.0123045712266,-0.0183259571459,0.07848,-0.22563,9.79038
3966,1347543958,884572029,1346678032,772012949,-0.0135342479156,0.00362976027433,-0.648911283638,0.760735035963,0.0136135681656,-0.00235619449019,-0.00157079632679,0.07848,-0.25506,9.77076
3967,1347543958,904792070,1346678032,792011023,-0.0134795632445,0.00368909816827,-0.648512372539,0.761075813959,-0.0112573736754,-0.00706858347058,0.0217293491873,0.05886,-0.28449,9.78057
3968,1347543958,937789916,1346678032,812011003,-0.0133670630814,0.00381961496267,-0.648378510209,0.761191197838,0.00287979326579,0.00575958653158,-0.0366519142919,0.02943,-0.17658,9.78057
3969,1347543958,975557088,1346678032,832010984,-0.0132454003353,0.00382484470596,-0.648112583486,0.761419732513,0.0138753675534,0.00261799387799,0.0125663706144,0.12753,-0.30411,9.75114
3970,1347543958,982826948,1346678032,852010965,-0.0133693938573,0.00381144877634,-0.647913404022,0.761587127685,0.00209439510239,0.0010471975512,0.00575958653158,0.07848,-0.23544,9.75114
3971,1347543958,988784074,1346678032,872010946,-0.013189869554,0.00388784619429,-0.647912705016,0.761590466505,0.0112573736754,0.0149225651046,-0.0183259571459,0.04905,-0.14715,9.77076
3972,1347543959,4681110,1346678032,892009020,-0.0131815814265,0.0037590846359,-0.647581184843,0.761873168074,-0.00837758040957,0.00366519142919,0.0138753675534,0.16677,-0.26487,9.77076
3973,1347543959,35881996,1346678032,912009001,-0.0132387283589,0.00369028010726,-0.647448709999,0.76198509554,-0.0141371669412,-0.000523598775598,-0.0172787595947,0.07848,-0.14715,9.75114
3974,1347543959,48048973,1346678032,932008982,-0.0131160642818,0.00369913885162,-0.64738203,0.762043825815,0.000785398163397,-0.0157079632679,-0.00890117918517,0.11772,-0.22563,9.79038
3975,1347543959,64889907,1346678032,952008963,-0.013307184038,0.00373981353947,-0.647049322907,0.762322836057,-0.0146607657168,0.0136135681656,0.00209439510239,0.15696,-0.2943,9.79038
3976,1347543959,84855079,1346678032,972007036,-0.0131809251417,0.0037613851986,-0.647714146932,0.761760132232,-0.00366519142919,0.0149225651046,-0.00628318530718,0.05886,-0.12753,9.77076
3977,1347543959,104865074,1346678032,992007017,-0.0131134785996,0.00370829468968,-0.647913879146,0.761591682228,-0.0109955742876,0.00811578102177,0.0154461638801,0.17658,-0.27468,9.77076
3978,1347543959,139219045,1346678033,12006998,-0.0133042426914,0.00375026382285,-0.647647850234,0.76181440964,-0.011780972451,-0.00811578102177,-0.00471238898038,0.07848,-0.25506,9.78057
3979,1347543959,175687074,1346678033,32006979,-0.0131147722397,0.00370371699629,-0.64764799403,0.761817800434,0.00183259571459,0.0183259571459,-0.00994837673637,0.01962,-0.17658,9.81981
3980,1347543959,182991027,1346678033,52006960,-0.0131825651008,0.00375563357717,-0.647381704725,0.76204267832,0.00287979326579,-0.00287979326579,0.0149225651046,0.14715,-0.32373,9.79038
3981,1347543959,188688993,1346678033,72005033,-0.0131267466449,0.00381985133821,-0.647248181144,0.762156735367,-0.0109955742876,-0.00314159265359,-0.0400553063333,0.00981,-0.17658,9.76095
3982,1347543959,205020904,1346678033,92005014,-0.012937909364,0.00377114579854,-0.647115300587,0.762273032913,0.0115191730632,0.0133517687778,0.00602138591938,0.06867,-0.18639,9.78057
3983,1347543959,231767892,1346678033,112004995,-0.012995341198,0.00370121522745,-0.646916221767,0.762441357829,0.00261799387799,0.00261799387799,0.000523598775598,0.13734,-0.24525,9.77076
3984,1347543959,245863914,1346678033,132004976,-0.0128726843254,0.0037101811327,-0.646849503921,0.762499998578,0.000261799387799,-0.00497418836818,-0.0115191730632,0.0,-0.11772,9.77076
3985,1347543959,265034914,1346678033,152003050,-0.0128733316781,0.00370793436896,-0.646716412714,0.7626128835,-0.00837758040957,-0.00785398163397,0.0157079632679,0.17658,-0.2943,9.81
3986,1347543959,284534931,1346678033,172003031,-0.0129930778297,0.00370915293859,-0.647381849959,0.762046036967,-0.00654498469498,-0.010471975512,-0.0238237442897,0.07848,-0.25506,9.78057
3987,1347543959,316808938,1346678033,192003012,-0.012810959148,0.00379462054549,-0.647913020175,0.761597136594,-0.0136135681656,0.00523598775598,0.00994837673637,0.01962,-0.17658,9.77076
3988,1347543959,344063043,1346678033,212002993,-0.0128645593376,0.00373825612148,-0.648511480154,0.761086978382,0.0107337748998,-0.0115191730632,0.0264417381677,0.17658,-0.30411,9.77076
3989,1347543959,382143020,1346678033,232002974,-0.012931638786,0.00379259247104,-0.648378307043,0.761199027795,0.0146607657168,0.00497418836818,-0.0125663706144,0.06867,-0.22563,9.76095
3990,1347543959,388048887,1346678033,252001047,-0.0128655375698,0.00373488805966,-0.648312205827,0.761256732206,0.00157079632679,0.001308996939,0.0335103216383,0.17658,-0.23544,9.79038
3991,1347543959,394903898,1346678033,272001028,-0.0129862586377,0.00373295775559,-0.648777284393,0.760858368797,-0.0120427718388,-0.00785398163397,-0.00287979326579,0.1962,-0.2943,9.78057
3992,1347543959,404860973,1346678033,292001009,-0.0130559407597,0.00393424875963,-0.650036764608,0.759780408247,0.000523598775598,0.0222529479629,-0.0303687289847,0.02943,-0.25506,9.78057
3993,1347543959,431596994,1346678033,312000990,-0.0130514690955,0.00394905771971,-0.650898289653,0.759042476166,0.00497418836818,0.00628318530718,0.0290597320457,0.17658,-0.30411,9.77076
3994,1347543959,444533109,1346678033,331998825,-0.0132407390625,0.00399641417115,-0.650898114015,0.759039100886,0.00916297857297,-0.00523598775598,-0.0219911485751,0.0981,-0.25506,9.76095
3995,1347543959,464760065,1346678033,351999044,-0.013250544942,0.00411830604368,-0.650830992356,0.759095831896,-0.00523598775598,-0.00680678408278,0.000785398163397,0.14715,-0.26487,9.76095
3996,1347543959,485827922,1346678033,371999025,-0.0133757243461,0.00410184726233,-0.650433615999,0.759434247335,0.00706858347058,0.00916297857297,0.0397935069455,0.22563,-0.30411,9.76095
3997,1347543959,504555940,1346678033,391999006,-0.0134427230448,0.00415626215301,-0.650300699586,0.759546587643,0.0112573736754,0.0322013246993,-0.0246091424531,0.04905,-0.25506,9.77076
3998,1347543959,538755893,1346678033,411998987,-0.0134430856959,0.0041550890383,-0.650234414166,0.759603334192,-0.001308996939,0.00418879020479,0.00287979326579,0.18639,-0.24525,9.76095
3999,1347543959,575603008,1346678033,431996822,-0.0134352899212,0.00402618735332,-0.649903803976,0.75988704975,0.00209439510239,0.000523598775598,-0.00261799387799,0.18639,-0.23544,9.75114
4000,1347543959,583036899,1346678033,451997042,-0.0133689772154,0.00396947253206,-0.649904152853,0.759888219306,0.00418879020479,0.0206821516361,-0.0390081087821,0.13734,-0.24525,9.74133
4001,1347543959,588654994,1346678033,471997023,-0.0134926859458,0.00395751157201,-0.649771695576,0.759999361287,-0.0125663706144,-0.00314159265359,0.057334065928,0.21582,-0.24525,9.74133
4002,1347543959,604859113,1346678033,491997004,-0.0134847287826,0.0038285939264,-0.649440880379,0.760282872917,0.00366519142919,0.00157079632679,-0.01308996939,0.0981,-0.24525,9.73152
4003,1347543959,631882905,1346678033,511994839,-0.0136174229703,0.00394194268411,-0.649440202272,0.760280507808,0.0102101761242,0.00968657734857,-0.000523598775598,0.17658,-0.27468,9.77076
4004,1347543959,648956060,1346678033,531995058,-0.013741463079,0.00392866412739,-0.649241322161,0.760448185867,-0.0146607657168,0.00340339204139,0.0261799387799,0.17658,-0.27468,9.76095
4005,1347543959,664968013,1346678033,551995039,-0.0139221258698,0.00384893573378,-0.649042925946,0.760614646444,-0.001308996939,-0.00209439510239,-0.0384845100065,0.13734,-0.2943,9.74133
4006,1347543959,684798002,1346678033,571995020,-0.013979084917,0.00378133062088,-0.648977067961,0.760670133491,-0.00575958653158,0.00994837673637,0.0128281700022,0.24525,-0.24525,9.76095
4007,1347543959,704762935,1346678033,591995001,-0.0140376512418,0.00370759084009,-0.648579209366,0.761008677543,-0.00837758040957,0.00654498469498,0.0290597320457,0.17658,-0.2943,9.76095
4008,1347543959,738558053,1346678033,611992836,-0.0141609724936,0.00369653446091,-0.648512987708,0.761062879968,-0.014398966329,0.0138753675534,-0.0623082542962,0.1962,-0.33354,9.74133
4009,1347543959,775835990,1346678033,631993055,-0.0142846130643,0.00368421006638,-0.648380340784,0.761173639921,0.011780972451,-0.00261799387799,0.0353429173529,0.17658,-0.25506,9.77076
4010,1347543959,782885074,1346678033,651993036,-0.0142862192444,0.00367797687761,-0.648048154419,0.761456476747,-0.0141371669412,0.00680678408278,-0.0123045712266,0.10791,-0.28449,9.79038
4011,1347543959,788654088,1346678033,671993017,-0.0143529946476,0.00373327721271,-0.647981379015,0.761511777082,0.000785398163397,0.000523598775598,-0.0222529479629,0.20601,-0.25506,9.77076
4012,1347543959,817333936,1346678033,691990852,-0.0144008474478,0.00353877500159,-0.64771686857,0.761736798924,0.00183259571459,-0.00968657734857,0.0395317075577,0.21582,-0.20601,9.74133
4013,1347543959,831517934,1346678033,711990833,-0.0144588733516,0.00346598242388,-0.647384941613,0.762018152881,0.00759218224618,0.0128281700022,-0.00785398163397,0.22563,-0.30411,9.72171
4014,1347543959,845916986,1346678033,731991053,-0.014515059719,0.00340074040239,-0.647451937811,0.761960455818,-0.0123045712266,-0.00471238898038,-0.0178023583703,0.20601,-0.22563,9.7119
4015,1347543959,866806030,1346678033,751991034,-0.0144494410949,0.00334045680888,-0.647252728819,0.762131196079,-0.00261799387799,-0.00157079632679,0.0308923277603,0.0981,-0.1962,9.74133
4016,1347543959,884727001,1346678033,771991014,-0.0143797735321,0.00329777844912,-0.647984314177,0.761510784789,-0.00759218224618,-0.0125663706144,-0.0337721210261,0.17658,-0.24525,9.76095
4017,1347543959,905615091,1346678033,791988850,-0.0143681903556,0.00318229025724,-0.648383713662,0.761171457684,0.00418879020479,-0.00523598775598,0.00575958653158,0.17658,-0.15696,9.77076
4018,1347543959,938827991,1346678033,811988831,-0.014355660666,0.0030718020001,-0.649048454891,0.760605405084,0.0214675497995,0.000261799387799,0.00628318530718,0.14715,-0.24525,9.79038
4019,1347543959,975534915,1346678033,831989050,-0.0144789311458,0.00306079310943,-0.648982272069,0.760659583939,0.00628318530718,0.00392699081699,-0.049480084294,0.22563,-0.27468,9.78057
4020,1347543959,982666969,1346678033,851989031,-0.0144696857699,0.00293524278592,-0.64885022135,0.760772898307,0.0151843644924,-0.0107337748998,0.0489564855184,0.12753,-0.21582,9.76095
4021,1347543959,988490104,1346678033,871986866,-0.0144115014924,0.00300918945693,-0.649248017883,0.760434260589,0.00235619449019,-0.00287979326579,-0.00968657734857,0.16677,-0.2943,9.76095
4022,1347543960,5870103,1346678033,891986847,-0.0144637652179,0.00296427937473,-0.65037588243,0.759469040908,0.00785398163397,-0.00523598775598,-0.0282743338823,0.18639,-0.23544,9.75114
4023,1347543960,31500101,1346678033,911986828,-0.0143939260322,0.00292511103768,-0.651303521032,0.758675149263,0.0154461638801,0.0159697626557,0.0400553063333,0.11772,-0.22563,9.76095
4024,1347543960,45582056,1346678033,931987047,-0.0145255435556,0.0030425877839,-0.651501598291,0.75850208877,0.0128281700022,-0.000523598775598,-0.0246091424531,0.17658,-0.30411,9.77076
4025,1347543960,65772056,1346678033,951987028,-0.0146453926204,0.00304857795447,-0.652295729127,0.75781693067,0.00785398163397,-0.0120427718388,0.0230383461263,0.10791,-0.25506,9.78057
4026,1347543960,84635019,1346678033,971984863,-0.014598549711,0.00323396516859,-0.65209611342,0.757988840735,0.000523598775598,-0.00811578102177,0.00916297857297,0.11772,-0.31392,9.77076
4027,1347543960,105997085,1346678033,991984844,-0.014722152889,0.00322214424932,-0.651963998052,0.758100139325,-0.000523598775598,-0.0120427718388,-0.053407075111,0.14715,-0.31392,9.74133
4028,1347543960,139204978,1346678034,11984825,-0.0147325943704,0.00334006385077,-0.651698568996,0.758327613769,0.0191113553093,0.00340339204139,0.0471238898038,0.08829,-0.25506,9.73152
4029,1347543960,182003974,1346678034,31985044,-0.0148002516664,0.00339047776169,-0.651367330733,0.75861061004,-0.00654498469498,-0.00471238898038,0.0102101761242,0.18639,-0.28449,9.77076
4030,1347543960,187557935,1346678034,51982880,-0.0149147637723,0.00325414901913,-0.651169671445,0.758778636577,-0.00261799387799,0.0,-0.0243473430653,0.16677,-0.27468,9.79038
4031,1347543960,195086956,1346678034,71982861,-0.0149912816916,0.00343010181826,-0.650969931341,0.75894772176,0.0112573736754,0.00183259571459,0.0369137136797,0.11772,-0.2943,9.76095
4032,1347543960,206736087,1346678034,91982841,-0.0151157981972,0.00341407274194,-0.650638913877,0.759229122533,-0.0164933614313,0.00340339204139,-0.0198967534727,0.15696,-0.30411,9.73152
4033,1347543960,231585025,1346678034,111982822,-0.0151265213929,0.00353183820018,-0.650373047963,0.759456129709,0.00863937979737,-0.00235619449019,0.00523598775598,0.10791,-0.28449,9.74133
4034,1347543960,245678901,1346678034,131983042,-0.0151277533155,0.00352655783306,-0.650107908146,0.759683106457,0.00314159265359,-0.00392699081699,0.0204203522483,0.17658,-0.26487,9.77076
4035,1347543960,265954971,1346678034,151980877,-0.0151850764876,0.00345760152446,-0.64997581456,0.759795300677,0.00575958653158,0.00575958653158,-0.0335103216383,0.22563,-0.25506,9.77076
4036,1347543960,284820079,1346678034,171980858,-0.0153083895908,0.00344667075923,-0.649909710323,0.759849420673,-0.0178023583703,-0.000523598775598,0.0149225651046,0.18639,-0.30411,9.75114
4037,1347543960,316905021,1346678034,191980839,-0.0153659758097,0.00337632715102,-0.649711262302,0.760018264807,0.0238237442897,0.00261799387799,0.00549778714378,0.1962,-0.25506,9.75114
4038,1347543960,338952064,1346678034,211981058,-0.0153577541027,0.00324659252758,-0.649380363702,0.76030174422,-0.0172787595947,0.001308996939,-0.0138753675534,0.14715,-0.27468,9.78057
4039,1347543960,379565000,1346678034,231978893,-0.0154349913882,0.00342090358412,-0.649113848968,0.760526968317,0.00968657734857,-0.00549778714378,0.0196349540849,0.13734,-0.30411,9.77076
4040,1347543960,386909008,1346678034,251978874,-0.0154925011301,0.00335046752732,-0.648915225781,0.760695593865,-0.00811578102177,-0.0112573736754,-0.00497418836818,0.14715,-0.23544,9.73152
4041,1347543960,465913057,1346678034,351963043,-0.0158311552792,0.00295762289508,-0.649183639885,0.760461194733,-0.00654498469498,-0.000523598775598,0.0217293491873,0.17658,-0.21582,9.79038
4042,1347543960,485923051,1346678034,371956825,-0.0157560354963,0.00277244365481,-0.64891911303,0.760689191224,0.00366519142919,0.00863937979737,-0.0227765467385,0.18639,-0.25506,9.76095
4043,1347543960,505609035,1346678034,391950846,-0.0158787907821,0.00276406291751,-0.648985707788,0.760629854165,-0.010471975512,0.000785398163397,0.0159697626557,0.18639,-0.32373,9.74133
4044,1347543960,538662910,1346678034,411944866,-0.0158761301567,0.00277930418659,-0.64971556091,0.760006522256,0.00392699081699,-0.000523598775598,0.0,0.13734,-0.17658,9.76095
4045,1347543960,575666904,1346678034,431938887,-0.0158667220921,0.00265488513802,-0.649649922512,0.76006327164,-0.010471975512,-0.00863937979737,-0.0146607657168,0.17658,-0.30411,9.78057
4046,1347543960,582830905,1346678034,451935053,-0.0159337594081,0.00270740642287,-0.649450682359,0.760231935955,-0.0141371669412,0.010471975512,0.0274889357189,0.12753,-0.2943,9.77076
4047,1347543960,588633060,1346678034,471928835,-0.0157521490774,0.00279444052087,-0.649980602612,0.759782388009,0.00994837673637,-0.00523598775598,-0.00994837673637,0.0981,-0.22563,9.74133
4048,1347543960,605973005,1346678034,491922855,-0.0156916841835,0.00288129955454,-0.65097414348,0.758932232601,0.00916297857297,-0.00575958653158,-0.00235619449019,0.15696,-0.36297,9.75114
4049,1347543960,631500005,1346678034,511916876,-0.0156315366385,0.00296527677149,-0.651834247423,0.758194550285,0.00418879020479,-0.00549778714378,0.0277507351067,0.0981,-0.20601,9.73152
4050,1347543960,645755052,1346678034,531910896,-0.0155646096737,0.00291246839634,-0.652032976596,0.758025235652,0.0157079632679,0.0,-0.0314159265359,0.1962,-0.23544,9.73152
4051,1347543960,665891885,1346678034,551904917,-0.0156848517303,0.00291826418216,-0.65276052678,0.757396305667,-0.0112573736754,0.0141371669412,0.0238237442897,0.18639,-0.27468,9.74133
4052,1347543960,685919046,1346678034,571898937,-0.0155625725943,0.00292333383313,-0.652562019103,0.757569846072,-0.00863937979737,0.00209439510239,0.0141371669412,0.0981,-0.14715,9.75114
4053,1347543960,705637931,1346678034,591894865,-0.0156205013288,0.00285175858043,-0.65229798929,0.757796279074,-0.00235619449019,-0.0196349540849,-0.0123045712266,0.23544,-0.31392,9.77076
4054,1347543960,739049911,1346678034,611888885,-0.0157450266747,0.00283429592523,-0.651901321253,0.758135032992,0.00549778714378,-0.00602138591938,0.0261799387799,0.17658,-0.27468,9.76095
4055,1347543960,776892900,1346678034,631882906,-0.0156131814927,0.00271779266527,-0.651769476071,0.758251536252,-0.00994837673637,0.0102101761242,-0.0340339204139,0.16677,-0.18639,9.73152
4056,1347543960,782787084,1346678034,651876926,-0.0156705069802,0.00264887517896,-0.651637563427,0.758363965786,-0.0159697626557,0.0107337748998,0.0112573736754,0.25506,-0.31392,9.73152
4057,1347543960,788636922,1346678034,671870947,-0.0157381012268,0.00269750119347,-0.651240162754,0.758703687926,0.0206821516361,0.000785398163397,0.0167551608191,0.13734,-0.1962,9.77076
4058,1347543960,816797018,1346678034,691864967,-0.0156063581262,0.0025797526558,-0.651041972446,0.758876891582,0.0209439510239,-0.00314159265359,-0.0376991118431,0.1962,-0.24525,9.77076
4059,1347543960,831645011,1346678034,711858988,-0.0157305018458,0.00256346621251,-0.650710994753,0.759158205686,0.00759218224618,-0.00759218224618,0.0264417381677,0.21582,-0.28449,9.74133
4060,1347543960,846235990,1346678034,731854916,-0.0157218739896,0.00243493122021,-0.650446603172,0.759385350273,0.00759218224618,-0.00549778714378,-0.0324631240871,0.1962,-0.18639,9.72171
4061,1347543960,866151094,1346678034,751848936,-0.0157696867109,0.00224147703692,-0.650248805208,0.759554332545,-0.00994837673637,0.00287979326579,-0.0010471975512,0.28449,-0.26487,9.74133
4062,1347543960,886154890,1346678034,771842957,-0.0158277421139,0.00216551215291,-0.649785102608,0.759950073074,-0.0251327412287,0.00863937979737,0.0125663706144,0.20601,-0.23544,9.77076
4063,1347543960,905905008,1346678034,791836977,-0.0158182911795,0.00204109593481,-0.649719361772,0.760006820055,0.0240855436775,-0.00785398163397,-0.0170169602069,0.20601,-0.23544,9.77076
4064,1347543960,944829940,1346678034,811830997,-0.0159420054422,0.00202589365898,-0.649454244378,0.760230841703,0.000523598775598,-0.00863937979737,0.0489564855184,0.23544,-0.28449,9.73152
4065,1347543960,976830005,1346678034,831825018,-0.0159988361774,0.00195814141486,-0.649388289142,0.760286165104,0.0109955742876,-0.00523598775598,-0.0159697626557,0.17658,-0.24525,9.73152
4066,1347543960,982882022,1346678034,851819038,-0.0159773454541,0.00173160080157,-0.650317742799,0.759492303708,0.0162315620435,-0.00287979326579,-0.000523598775598,0.20601,-0.22563,9.78057
4067,1347543960,989908933,1346678034,871814966,-0.0159686422622,0.00160019701656,-0.649920489079,0.759832744563,-0.000523598775598,-0.0141371669412,0.0240855436775,0.18639,-0.27468,9.75114
4068,1347543961,5883932,1346678034,891808987,-0.0159785504458,0.00172044608914,-0.64978735871,0.759946126019,0.00366519142919,0.00287979326579,-0.0473856891916,0.16677,-0.22563,9.73152
4069,1347543961,31454086,1346678034,911803007,-0.0159027378231,0.00153931747426,-0.649721679866,0.760004257977,-0.00602138591938,-0.00497418836818,0.0308923277603,0.21582,-0.20601,9.76095
4070,1347543961,45607089,1346678034,931797028,-0.0158943278238,0.00140241215447,-0.649058676115,0.760570995071,-0.0282743338823,-0.00890117918517,0.00654498469498,0.20601,-0.23544,9.75114
4071,1347543961,64863920,1346678034,951791048,-0.0159410996727,0.00121439021419,-0.649125822853,0.760513032566,0.00157079632679,0.00471238898038,-0.0329867228627,0.1962,-0.1962,9.77076
4072,1347543961,85669994,1346678034,971784830,-0.0159319323939,0.00108302039951,-0.648727948895,0.760852843144,-0.0102101761242,0.0107337748998,0.0555014702134,0.1962,-0.1962,9.78057
4073,1347543961,105925083,1346678034,991778851,-0.0158754365932,0.00114804575774,-0.64866123345,0.760910807337,0.0185877565337,0.0115191730632,-0.0463384916404,0.13734,-0.25506,9.79038
4074,1347543961,148914098,1346678035,11775017,-0.0156940199249,0.0012475546944,-0.64978882158,0.759951727872,-0.0146607657168,0.0123045712266,0.00837758040957,0.14715,-0.22563,9.81981
4075,1347543961,176896095,1346678035,31769037,-0.0156382441832,0.00130296911832,-0.649257792866,0.760406513645,0.0138753675534,-0.00549778714378,0.0426733002113,0.15696,-0.27468,9.77076
4076,1347543961,182645082,1346678035,51763058,-0.0156482078779,0.00142326761937,-0.649124616082,0.760519783238,0.00497418836818,0.00628318530718,-0.0683296402156,0.13734,-0.26487,9.78057
4077,1347543961,188690900,1346678035,71756840,-0.0155254582892,0.00143029220774,-0.648991657582,0.760635749093,-0.00523598775598,-0.0164933614313,0.0570722665402,0.15696,-0.21582,9.82962
4078,1347543961,206604957,1346678035,91750860,-0.0155346731201,0.00155874105407,-0.649256657601,0.760409124629,-0.0191113553093,0.00471238898038,0.000523598775598,0.13734,-0.28449,9.79038
4079,1347543961,231656074,1346678035,111744881,-0.0154185607522,0.00171705062585,-0.650515870876,0.759334196161,0.0154461638801,0.00785398163397,-0.0429350995991,0.15696,-0.1962,9.77076
4080,1347543961,245663881,1346678035,131738901,-0.0154090497198,0.00159400524488,-0.650516364814,0.759334234341,-0.00340339204139,0.00994837673637,0.0594284610304,0.1962,-0.21582,9.76095
4081,1347543961,265959978,1346678035,151734829,-0.0154079331392,0.00160476240165,-0.651046321545,0.758879903237,0.00366519142919,-0.000523598775598,-0.0552396708256,0.14715,-0.27468,9.77076
4082,1347543961,285633087,1346678035,171728849,-0.0153508415691,0.00167367917248,-0.651178415722,0.758767567414,0.0146607657168,-0.0128281700022,0.0329867228627,0.15696,-0.21582,9.78057
4083,1347543961,317212104,1346678035,191722870,-0.0152858917084,0.00160484811425,-0.650582422816,0.759280104507,-0.00392699081699,0.000785398163397,0.0261799387799,0.18639,-0.26487,9.76095
4084,1347543961,338897943,1346678035,211716890,-0.0153524411129,0.00165894265356,-0.650449751236,0.759392304134,0.0107337748998,0.0123045712266,-0.059952059806,0.16677,-0.26487,9.76095
4085,1347543961,375803947,1346678035,231710911,-0.0153431871705,0.00153322019244,-0.650317685561,0.759505854941,-0.00392699081699,0.00261799387799,0.0486946861306,0.1962,-0.23544,9.75114
4086,1347543961,382914066,1346678035,251704931,-0.0154672624256,0.00151288127041,-0.649787499551,0.759957025371,0.00392699081699,0.00785398163397,-0.0115191730632,0.16677,-0.30411,9.75114
4087,1347543961,388715028,1346678035,271698952,-0.0155430625028,0.00169397850998,-0.649853187317,0.759898926554,-0.00209439510239,-0.00575958653158,-0.0191113553093,0.16677,-0.25506,9.78057
4088,1347543961,416871070,1346678035,291694880,-0.0156004664441,0.00162084506862,-0.649521911926,0.760181086476,0.00314159265359,0.00183259571459,0.0505272818452,0.1962,-0.26487,9.77076
4089,1347543961,431592941,1346678035,311688900,-0.015724032196,0.00160568659581,-0.649256731885,0.760405071449,-0.00418879020479,0.00183259571459,-0.0536688744988,0.16677,-0.30411,9.74133
4090,1347543961,444874048,1346678035,331682920,-0.0157338980278,0.00172734295915,-0.649189866944,0.760461687001,-0.0141371669412,0.00680678408278,0.0246091424531,0.18639,-0.25506,9.76095
4091,1347543961,464873075,1346678035,351676941,-0.0157250101203,0.00159608103215,-0.648792105751,0.760801537917,0.00523598775598,0.00811578102177,0.0301069295969,0.21582,-0.20601,9.79038
4092,1347543961,491462945,1346678035,371670961,-0.0156588860501,0.00153673026634,-0.648659447527,0.760916131306,0.00680678408278,0.00235619449019,-0.049480084294,0.17658,-0.22563,9.78057
4093,1347543961,504703998,1346678035,391664982,-0.0156493208833,0.00141097710794,-0.648527105096,0.761029369903,-0.00497418836818,-0.0193731546971,0.0285361332701,0.20601,-0.24525,9.74133
4094,1347543961,539268016,1346678035,411659002,-0.0156401599673,0.00127976789074,-0.648128993045,0.761368869842,-0.00680678408278,0.00942477796077,-0.0102101761242,0.17658,-0.23544,9.74133
4095,1347543961,575867891,1346678035,431654930,-0.0155736111355,0.00122456702002,-0.648195541877,0.761313668972,-0.00785398163397,-0.00811578102177,-0.0251327412287,0.1962,-0.25506,9.74133
4096,1347543961,582756042,1346678035,451648951,-0.0156293490723,0.00116902837636,-0.648727200229,0.760859629961,0.0138753675534,0.00209439510239,0.0274889357189,0.21582,-0.22563,9.77076
4097,1347543961,588864088,1346678035,471642971,-0.0154968296559,0.00105174707879,-0.648528178856,0.761032156566,0.00628318530718,-0.00235619449019,-0.0151843644924,0.15696,-0.22563,9.77076
4098,1347543961,605993032,1346678035,491636992,-0.0154404450951,0.00111547787517,-0.648395035677,0.761146652147,0.000523598775598,0.001308996939,0.00680678408278,0.18639,-0.24525,9.74133
4099,1347543961,631571054,1346678035,511631012,-0.015430849761,0.000988419430728,-0.648196142934,0.761316407407,0.00785398163397,0.00549778714378,-0.010471975512,0.17658,-0.1962,9.74133
4100,1347543961,645078897,1346678035,531625032,-0.015374483027,0.0010521864465,-0.648062955374,0.761430839964,-0.00994837673637,0.00366519142919,-0.0327249234749,0.18639,-0.20601,9.74133
4101,1347543961,665174961,1346678035,551619053,-0.0152982033726,0.000871282816945,-0.647996970491,0.761488760307,0.00445058959259,0.00287979326579,0.00183259571459,0.24525,-0.23544,9.72171
4102,1347543961,684861898,1346678035,571614981,-0.015288349561,0.000746935013848,-0.647930869846,0.761545334407,-0.0112573736754,0.00183259571459,0.00209439510239,0.18639,-0.23544,9.7119
4103,1347543961,704607963,1346678035,591609001,-0.0154771633261,0.000805706125971,-0.648528930348,0.761032216634,-0.0225147473507,0.00628318530718,-0.0102101761242,0.23544,-0.27468,9.74133
4104,1347543961,738657951,1346678035,611603022,-0.0156568613014,0.000726716929173,-0.648396592856,0.76114137514,-0.00968657734857,-0.00445058959259,0.00209439510239,0.20601,-0.26487,9.75114
4105,1347543961,775893926,1346678035,631597042,-0.0157235558225,0.000777811694469,-0.648130799488,0.761366292632,0.00287979326579,-0.0128281700022,0.00968657734857,0.1962,-0.24525,9.76095
4106,1347543961,782840967,1346678035,651590824,-0.015846741986,0.000763767861563,-0.647931672134,0.761533220335,0.00445058959259,0.00890117918517,0.00392699081699,0.25506,-0.23544,9.77076
4107,1347543961,788820981,1346678035,671584845,-0.0157804702258,0.000703093860391,-0.647732344824,0.761704202357,0.00759218224618,-0.00261799387799,0.0324631240871,0.18639,-0.16677,9.75114
4108,1347543961,816674947,1346678035,691578865,-0.0157141676672,0.00064245460993,-0.647532967465,0.761875126404,0.00445058959259,0.00392699081699,-0.0185877565337,0.24525,-0.27468,9.74133
4109,1347543961,831639051,1346678035,711575031,-0.0158364178267,0.000650429089331,-0.648397088921,0.761137306858,-0.0230383461263,-0.00785398163397,-0.011780972451,0.24525,-0.28449,9.73152
4110,1347543961,844871044,1346678035,731569052,-0.015836474527,0.000649047098692,-0.648330664692,0.76119388728,-0.00628318530718,-0.00340339204139,0.0282743338823,0.13734,-0.22563,9.75114
4111,1347543961,864947080,1346678035,751562834,-0.0158367562197,0.000642137071566,-0.647998469497,0.761476702429,0.00209439510239,-0.00549778714378,-0.0264417381677,0.21582,-0.28449,9.78057
4112,1347543961,884727001,1346678035,771556854,-0.0159598497798,0.000629434943747,-0.647865778927,0.761587040004,-0.00994837673637,-0.001308996939,0.0167551608191,0.1962,-0.23544,9.75114
4113,1347543961,904620885,1346678035,791550875,-0.015837090271,0.000633844877756,-0.64759967242,0.761815889237,-0.0162315620435,-0.00628318530718,0.0185877565337,0.18639,-0.21582,9.75114
4114,1347543961,939414024,1346678035,811544895,-0.0158936865022,0.000564576149635,-0.64746697583,0.761927547207,-0.00968657734857,-0.0154461638801,-0.0248709418409,0.26487,-0.27468,9.79038
4115,1347543961,975598096,1346678035,831538916,-0.0160167593161,0.000551778251358,-0.647334209374,0.762037781436,0.0128281700022,0.00863937979737,0.0259181393921,0.17658,-0.22563,9.78057
4116,1347543961,982959985,1346678035,851534843,-0.0159606600346,0.000608543015945,-0.646868309058,0.762434441604,-0.00733038285838,0.000523598775598,0.0159697626557,0.21582,-0.26487,9.76095
4117,1347543961,988790035,1346678035,871528864,-0.0160837842872,0.000594233294207,-0.646668910162,0.762600996196,-0.0159697626557,-0.00366519142919,-0.0136135681656,0.25506,-0.28449,9.76095
4118,1347543962,4698038,1346678035,891522884,-0.0160839393059,0.000590022549011,-0.64646923953,0.762770267585,0.00157079632679,-0.00418879020479,0.0392699081699,0.14715,-0.21582,9.74133
4119,1347543962,31666994,1346678035,911516905,-0.0160278258934,0.000649607615957,-0.646136072384,0.763053643443,-0.0138753675534,-0.0133517687778,-0.0154461638801,0.17658,-0.28449,9.74133
4120,1347543962,44933080,1346678035,931510925,-0.016038180094,0.000769797478948,-0.64600253038,0.763166374347,0.0112573736754,-0.0102101761242,0.00418879020479,0.10791,-0.26487,9.76095
4121,1347543962,65129995,1346678035,951504946,-0.0160487318184,0.000887182661411,-0.645735720076,0.76339179386,-0.01308996939,-0.0128281700022,0.0170169602069,0.12753,-0.26487,9.76095
4122,1347543962,84892034,1346678035,971498966,-0.0161154325361,0.000942127396825,-0.645669019358,0.763446738595,-0.014398966329,0.00183259571459,-0.0536688744988,0.1962,-0.30411,9.77076
4123,1347543962,104856967,1346678035,991494894,-0.0161924482868,0.00112004216477,-0.645601890495,0.763501636614,0.0115191730632,-0.0125663706144,0.0198967534727,0.11772,-0.27468,9.79038
4124,1347543962,138839960,1346678036,11488914,-0.016203294554,0.00123595386158,-0.645268248609,0.763783223827,0.00863937979737,0.0133517687778,0.00287979326579,0.18639,-0.2943,9.80019
4125,1347543962,175869941,1346678036,31482935,-0.0163259191153,0.00122987154193,-0.645468419667,0.763611465992,-0.00654498469498,-0.0115191730632,-0.0324631240871,0.1962,-0.2943,9.79038
4126,1347543962,182852029,1346678036,51476955,-0.0163348203514,0.00136995779458,-0.646267256142,0.762935076202,-0.0112573736754,0.00549778714378,0.0429350995991,0.17658,-0.28449,9.77076
4127,1347543962,188760995,1346678036,71470976,-0.0164581347143,0.00135545361954,-0.646067732838,0.763101419952,0.00628318530718,-0.00628318530718,-0.0183259571459,0.23544,-0.26487,9.77076
4128,1347543962,206698894,1346678036,91464996,-0.0165149463979,0.00128308118164,-0.645801672821,0.763325493895,-0.000785398163397,-0.0170169602069,-0.00287979326579,0.16677,-0.26487,9.77076
4129,1347543962,231432914,1346678036,111459017,-0.0164693931453,0.00146694388362,-0.645534347201,0.763552233805,-0.0128281700022,0.00209439510239,0.0172787595947,0.16677,-0.26487,9.74133
4130,1347543962,244996070,1346678036,131454945,-0.0166489001314,0.0013870776634,-0.64540167576,0.763660636059,0.0191113553093,0.00445058959259,-0.01308996939,0.20601,-0.2943,9.73152
4131,1347543962,264955997,1346678036,151448965,-0.0165929757446,0.00144939049247,-0.645201363038,0.763830984942,0.0,-0.00392699081699,0.0188495559215,0.13734,-0.32373,9.74133
4132,1347543962,284529924,1346678036,171442986,-0.0166700023145,0.00162867082292,-0.645200718974,0.763829490586,0.0109955742876,-0.00994837673637,0.001308996939,0.21582,-0.26487,9.77076
4133,1347543962,317625045,1346678036,191437006,-0.0167249196771,0.00157659519531,-0.645867420229,0.763264742338,-0.00654498469498,-0.00628318530718,-0.0253945406165,0.17658,-0.30411,9.75114
4134,1347543962,339108943,1346678036,211431026,-0.0167356265332,0.0016951987292,-0.645667049973,0.763433759854,-0.001308996939,0.00261799387799,0.0212057504117,0.13734,-0.2943,9.74133
4135,1347543962,379736900,1346678036,231425047,-0.0166797596557,0.001757469068,-0.645466769849,0.763604181458,-0.00209439510239,0.00549778714378,-0.0183259571459,0.17658,-0.23544,9.77076
4136,1347543962,387005090,1346678036,251418829,-0.0166223320291,0.00183427517466,-0.645932713076,0.763211152756,0.0115191730632,0.000785398163397,-0.00261799387799,0.13734,-0.32373,9.78057
4137,1347543962,392901897,1346678036,271414995,-0.0166315566621,0.00196596926303,-0.646331672088,0.762872791456,-0.0243473430653,0.00994837673637,0.00706858347058,0.16677,-0.23544,9.78057
4138,1347543962,406471014,1346678036,291409016,-0.0165653164188,0.00190667501285,-0.646198684674,0.762987034496,0.0109955742876,-0.00235619449019,-0.0128281700022,0.16677,-0.18639,9.76095
4139,1347543962,431830883,1346678036,311398983,-0.016509972918,0.00196462832801,-0.645798691389,0.763326673993,-0.0109955742876,-0.01308996939,0.00654498469498,0.13734,-0.33354,9.76095
4140,1347543962,446033000,1346678036,331388950,-0.0164539874998,0.00202838373691,-0.64566504511,0.763440764878,-0.00523598775598,-0.001308996939,-0.0214675497995,0.11772,-0.23544,9.78057
4141,1347543962,465841054,1346678036,351378918,-0.0164069846119,0.00222516156778,-0.645997070629,0.763160300494,-0.00209439510239,0.00340339204139,0.00968657734857,0.05886,-0.2943,9.77076
4142,1347543962,484493970,1346678036,371368885,-0.0164178397664,0.00234384960378,-0.645796620381,0.763329343083,-0.0308923277603,-0.0240855436775,-0.0311541271481,0.12753,-0.2943,9.78057
4143,1347543962,505995988,1346678036,391358852,-0.0162959122123,0.00234701003673,-0.645463258466,0.763613853174,0.0230383461263,0.0319395253115,-0.00890117918517,0.17658,-0.22563,9.81
4144,1347543962,538959980,1346678036,411349058,-0.0161744000328,0.00234745442733,-0.644996437819,0.764010780972,0.0201585528605,0.011780972451,0.104457955732,0.14715,-0.28449,9.81
4145,1347543962,575769901,1346678036,431339025,-0.0161770527265,0.00232910364588,-0.64412928021,0.764742014419,0.0128281700022,-0.0010471975512,-0.011780972451,0.0981,-0.27468,9.81981
4146,1347543962,582962036,1346678036,451328993,-0.0162439970913,0.0023838969736,-0.644062335845,0.764796807746,0.0175405589825,-0.0345575191895,-0.001308996939,0.07848,-0.30411,9.75114
4147,1347543962,588748931,1346678036,471318960,-0.0162452430701,0.00237539131022,-0.643661800905,0.765133933145,0.010471975512,-0.0280125344945,0.0733038285838,0.16677,-0.30411,9.78057
4148,1347543962,606439113,1346678036,491308928,-0.0162010464549,0.00255664694099,-0.643259963157,0.765472148056,0.0196349540849,0.00916297857297,0.0583812634792,0.17658,-0.32373,9.81981
4149,1347543962,631727933,1346678036,511298895,-0.0160792457144,0.00256030968806,-0.642925660968,0.765755507418,0.0869173967493,0.0198967534727,-0.00445058959259,0.08829,-0.32373,9.73152
4150,1347543962,645800113,1346678036,531288862,-0.016023842678,0.00262295263539,-0.64272469859,0.765925138905,0.10105456369,0.00759218224618,-0.0562868683768,0.17658,-0.23544,9.66285
4151,1347543962,666023015,1346678036,551278830,-0.0159470884043,0.00243835688694,-0.64245820298,0.766150900418,0.0332485222505,-0.0950331777711,-0.0209439510239,0.17658,-0.1962,9.70209
4152,1347543962,686548948,1346678036,571269035,-0.0158139780671,0.00232208673073,-0.642258018191,0.766321841056,-0.1308996939,-0.00575958653158,-0.00497418836818,0.12753,-0.31392,9.81981
4153,1347543962,706095933,1346678036,591259003,-0.0158260979705,0.00243673504808,-0.641856030605,0.76665796345,0.073042029196,0.102887159405,0.0267035375555,0.18639,-0.2943,9.80019
4154,1347543962,739077091,1346678036,611248970,-0.0155034782642,0.00227283682855,-0.641521828837,0.766944730408,0.0348193185773,-0.0311541271481,-0.0384845100065,0.16677,-0.08829,9.68247
4155,1347543962,776712894,1346678036,631238937,-0.0155484869967,0.00208297173846,-0.641522872413,0.7669434855,0.0225147473507,-0.147131255943,-0.0604756585816,0.14715,-0.17658,9.72171
4156,1347543962,782747030,1346678036,651228905,-0.0154129039751,0.0019844558938,-0.642192268638,0.766386060955,-0.0437204977625,0.191637151869,0.066497044501,0.24525,-0.33354,9.77076
4157,1347543962,788786888,1346678036,671218872,-0.0153231729949,0.00236009598606,-0.641989540066,0.766556625933,0.0238237442897,0.00497418836818,-0.0243473430653,0.25506,-0.28449,9.67266
4158,1347543962,826544046,1346678036,691208839,-0.0154704323729,0.00190541393482,-0.641590557141,0.766888904671,-0.0458148928649,-0.102887159405,-0.001308996939,0.30411,-0.12753,9.68247
4159,1347543962,842003107,1346678036,711199045,-0.0153483686647,0.00190966389883,-0.641255641479,0.767171416982,0.0311541271481,0.150534647985,0.00392699081699,0.28449,-0.16677,9.81981
4160,1347543962,854011058,1346678036,731189013,-0.0153940602399,0.00171306586686,-0.640921785819,0.767449902454,-0.0583812634792,-0.155508836353,-0.0146607657168,0.25506,-0.27468,9.73152
4161,1347543962,865741014,1346678036,751178980,-0.0157970033243,0.00136157274676,-0.640655975731,0.767664328705,0.0146607657168,-0.159174027782,0.0369137136797,0.32373,-0.31392,9.69228
4162,1347543962,885533094,1346678036,771168947,-0.0157300119138,0.0013056649609,-0.640656092111,0.76766570433,0.122783912878,0.195825942074,0.00340339204139,0.34335,-0.24525,9.67266
4163,1347543962,905961036,1346678036,791158915,-0.0156729159227,0.00138634725769,-0.641325403495,0.767107661662,-0.0861319985859,-0.0293215314335,-0.0230383461263,0.32373,-0.17658,9.73152
4164,1347543962,940772056,1346678036,811148882,-0.0161320170166,0.000965176504081,-0.640925994594,0.76743253509,-0.0154461638801,-0.129590696961,0.0128281700022,0.32373,-0.12753,9.72171
4165,1347543962,977030992,1346678036,831138849,-0.0159985191274,0.000844937112454,-0.640524237245,0.767770821905,0.0138753675534,0.164671814926,0.00471238898038,0.36297,-0.18639,9.72171
4166,1347543962,982893943,1346678036,851129055,-0.0159988862778,0.000837956361388,-0.640189173064,0.768050230232,-0.0240855436775,-0.0293215314335,-0.0500036830696,0.33354,-0.2943,9.6138
4167,1347543962,988985061,1346678036,871119022,-0.0163008761383,0.000740039207628,-0.639787767125,0.768378387786,-0.0675442420522,-0.0672824426644,-0.000261799387799,0.32373,-0.32373,9.63342
4168,1347543963,6843090,1346678036,891108990,-0.0163124899579,0.000855821584371,-0.639452041101,0.768657438247,-0.00863937979737,0.10471975512,0.00392699081699,0.33354,-0.31392,9.74133
4169,1347543963,31567096,1346678036,911098957,-0.0163127134525,0.000851550955207,-0.639250785143,0.768824820056,-0.0248709418409,-0.0837758040957,0.0342957198017,0.36297,-0.25506,9.68247
4170,1347543963,45835018,1346678036,931088924,-0.0167930056037,0.00067897589584,-0.639050936573,0.768980776366,-0.0369137136797,-0.049480084294,-0.0112573736754,0.47088,-0.24525,9.64323
4171,1347543963,65640926,1346678036,951078892,-0.0164918106846,0.000763048229875,-0.638781611783,0.769210953111,0.0719948316448,0.207083315749,-0.00837758040957,0.45126,-0.23544,9.69228
4172,1347543963,84793090,1346678036,971068859,-0.0161235269935,0.000791610475555,-0.638512282796,0.769442310995,0.0,-0.114406332468,0.0366519142919,0.35316,-0.21582,9.76095
4173,1347543963,105638980,1346678036,991058826,-0.0162237695335,0.000525913633657,-0.638110327904,0.769773812324,-0.00837758040957,-0.162315620435,0.0348193185773,0.46107,-0.1962,9.7119
4174,1347543963,139014959,1346678037,11049032,-0.0160897038961,0.000403309730934,-0.637572849045,0.770221929661,0.119904119612,0.180379778194,-0.0434586983747,0.51993,-0.1962,9.7119
4175,1347543963,177009105,1346678037,31039000,-0.0162126081191,0.000388890302806,-0.637438673744,0.770330407888,-0.052098078172,0.0235619449019,-0.0526216769476,0.46107,-0.22563,9.70209
4176,1347543963,183001041,1346678037,51028967,-0.0165462569059,-2.17588048839e-05,-0.637104199993,0.770600064405,-0.102625360017,-0.136397481043,0.0615228561328,0.4905,-0.24525,9.78057
4177,1347543963,189985036,1346678037,71018934,-0.016478943463,-9.02991930218e-05,-0.636498770224,0.771101648145,0.0253945406165,0.0782780169519,0.0780162175641,0.41202,-0.2943,9.69228
4178,1347543963,208993911,1346678037,91008902,-0.016724527854,-0.000121118878447,-0.63616280581,0.771373554124,-0.0973893722613,-0.0696386371546,-0.0010471975512,0.38259,-0.26487,9.64323
4179,1347543963,231676101,1346678037,110998869,-0.0167918428317,-6.56032003559e-05,-0.636162813958,0.771372091696,0.070424035318,0.137706477982,-0.00340339204139,0.40221,-0.25506,9.77076
4180,1347543963,245609998,1346678037,130988836,-0.0166571500771,-0.00018244900887,-0.635893493393,0.771597026384,-0.050789081233,-0.103934356956,-0.0267035375555,0.3924,-0.28449,9.78057
4181,1347543963,268903970,1346678037,150979042,-0.016866829075,-0.000584993331476,-0.635423240633,0.771979580769,0.0376991118431,-0.00287979326579,0.0445058959259,0.51012,-0.32373,9.78057
4182,1347543963,288579940,1346678037,170969009,-0.0164306855694,-0.000614683832953,-0.634950646471,0.772377712833,-0.00602138591938,0.0392699081699,-0.00261799387799,0.45126,-0.21582,9.64323
4183,1347543963,317095041,1346678037,190958977,-0.0166158905622,-0.00125718660402,-0.634749569476,0.772538229289,-0.0471238898038,-0.0502654824574,0.0335103216383,0.37278,-0.08829,9.74133
4184,1347543963,339030981,1346678037,210948944,-0.0159353851926,-0.00124125504133,-0.6352872598,0.772110497481,0.0395317075577,-0.0361283155163,0.0125663706144,0.38259,-0.11772,9.70209
4185,1347543963,375701904,1346678037,230938911,-0.0161200495881,-0.00188917487429,-0.634816033897,0.772492833706,-0.065188047562,-0.139539073697,0.0408407044967,0.35316,-0.27468,9.57456
4186,1347543963,382705926,1346678037,250928879,-0.0156076115876,-0.00142694782217,-0.633735629501,0.773390921967,-0.00890117918517,0.0772308194007,0.139539073697,0.24525,-0.35316,9.60399
4187,1347543963,390623092,1346678037,270918846,-0.0162868439634,-0.00145681088278,-0.632589113172,0.774314942586,-0.0581194640914,-0.125925505531,0.143204265126,0.24525,-0.26487,9.52551
4188,1347543963,404618978,1346678037,290909052,-0.015996778429,-0.001264005554,-0.631506557873,0.775204471564,0.0947713783833,0.0722566310326,0.0201585528605,0.37278,-0.12753,9.60399
4189,1347543963,435525894,1346678037,310899019,-0.0159982733844,-0.00185208208253,-0.630085079431,0.776359077823,0.0264417381677,0.170693200845,0.163886416762,0.44145,-0.0981,9.81
4190,1347543963,446722030,1346678037,330888987,-0.0162417329012,-0.00189464946681,-0.629272325359,0.777012842206,-0.0753982236862,-0.23195425759,-0.0431968989869,0.51012,-0.20601,9.68247
4191,1347543963,464761972,1346678037,350878954,-0.0165686887878,-0.00231893220559,-0.628459016546,0.777662758287,0.0188495559215,0.0395317075577,0.130114295736,0.46107,-0.38259,9.59418
4192,1347543963,484673023,1346678037,370868921,-0.0165805760264,-0.00220489147726,-0.628051832821,0.777991721192,-0.0714712328692,-0.242426233102,-0.00942477796077,0.43164,-0.3924,9.60399
4193,1347543963,504973888,1346678037,390858889,-0.0169494004794,-0.00223827502816,-0.6283243017,0.777763640087,0.00340339204139,0.269391570045,0.0628318530718,0.47088,-0.24525,9.63342
4194,1347543963,543812990,1346678037,410848856,-0.0170301496702,-0.0026373283362,-0.627509483851,0.778418182071,-0.00680678408278,-0.230121661875,0.0238237442897,0.44145,-0.25506,9.63342
4195,1347543963,582065105,1346678037,430838823,-0.0169458262539,-0.00283402161062,-0.626625597995,0.779131033416,0.0811578102177,0.148440252882,0.16650441064,0.35316,-0.28449,9.7119
4196,1347543963,587584972,1346678037,450829029,-0.0173244102847,-0.00333124561887,-0.625673670551,0.7798853926,-0.0929387826687,-0.329867228627,0.0764454212374,0.2943,-0.20601,9.74133
4197,1347543963,593826055,1346678037,470818996,-0.0170031551395,-0.00395477554012,-0.623968559639,0.781254432978,0.197396738401,0.247924020246,0.183521370847,0.31392,-0.11772,9.74133
4198,1347543963,606204986,1346678037,490808964,-0.0175762972456,-0.00487050764835,-0.622056918172,0.782759568759,-0.0994837673637,-0.238499242285,0.236404847183,0.36297,-0.16677,9.80019
4199,1347543963,630383014,1346678037,510798931,-0.0166676250397,-0.00461911097185,-0.620277340518,0.784191861045,0.0879645943005,0.0526216769476,0.175143790438,0.31392,-0.22563,9.62361
4200,1347543963,646305084,1346678037,530788898,-0.0176454978681,-0.00521606379041,-0.61822356836,0.785786897707,0.0437204977625,0.364424747816,0.277245551679,0.32373,-0.23544,9.59418
4201,1347543963,664764881,1346678037,550778866,-0.0172489608734,-0.00534136643557,-0.616093864591,0.787465740948,0.0895353906273,-0.495848040492,0.247662220858,0.27468,-0.11772,9.65304
4202,1347543963,684484004,1346678037,570768833,-0.0165539348941,-0.00536362899276,-0.61402782072,0.789092538366,0.0832522053201,0.492182849062,0.218078890037,0.25506,-0.03924,9.72171
4203,1347543963,704936981,1346678037,590759039,-0.0170466015882,-0.00678417241313,-0.611678837112,0.79089341166,-0.215199096771,-0.443226363544,0.297142305152,0.34335,-0.10791,10.1043
4204,1347543963,737673997,1346678037,610749006,-0.016824916878,-0.00787563009201,-0.608906687708,0.793024301196,0.073042029196,-0.759741823393,0.194516945135,0.23544,-0.26487,9.67266
4205,1347543963,775552988,1346678037,630738974,-0.0163708801181,-0.00880456724354,-0.606403420445,0.794939850273,0.17252579656,0.653189472559,0.296356906989,0.1962,-0.46107,9.66285
4206,1347543963,782385110,1346678037,650728941,-0.0172943477995,-0.00966250993158,-0.604317271918,0.796497442744,-0.200276531666,-0.479092879672,0.312064870257,0.37278,-0.33354,9.78057
4207,1347543963,790071010,1346678037,670718908,-0.0163436729064,-0.00920283063965,-0.602299794815,0.798049590833,-0.0374373124553,-0.139015474921,0.141633468799,0.34335,-0.33354,9.03501
4208,1347543963,815445899,1346678037,690708876,-0.0169651576572,-0.00952462994227,-0.60020905707,0.799606498636,0.0856083998103,0.809483707075,0.37830011537,0.2943,-0.51012,9.56475
4209,1347543963,831482887,1346678037,710698843,-0.0186224160259,-0.00917593157493,-0.598684775071,0.800715647405,-0.295309709437,-0.136921079819,0.224623874732,0.25506,-0.46107,9.39798
4210,1347543963,846498966,1346678037,730689049,-0.0166168984778,-0.00830146617459,-0.596933680446,0.80207552356,-0.359974158224,-0.676751417461,-0.0149225651046,0.18639,-0.42183,9.38817
4211,1347543963,864902019,1346678037,750679016,-0.0183738296424,-0.00819881432214,-0.596383088609,0.802447751227,0.32122784883,0.771522795844,0.220958683302,0.31392,-0.35316,10.48689
4212,1347543963,884861946,1346678037,770668983,-0.0213691133829,-0.00815736422283,-0.595839114582,0.802778031548,-0.00418879020479,-0.218078890037,0.154199839414,0.23544,-0.30411,10.5948
4213,1347543963,904616117,1346678037,790658951,-0.0199763324819,-0.00823747138544,-0.594429182258,0.803857597766,0.0180641577581,-0.517053790903,-0.0340339204139,0.13734,-0.50031,9.55494
4214,1347543963,937526941,1346678037,810648918,-0.0187052337449,-0.00833124070226,-0.593018117775,0.804928702836,-0.00392699081699,0.473856891916,0.0256563400043,0.05886,-0.4905,9.4176
4215,1347543963,975534915,1346678037,830638885,-0.0200966973251,-0.00818285367069,-0.592464652242,0.805304165832,0.187448361664,-0.188757358603,0.138491876146,0.21582,-0.35316,10.28088
4216,1347543963,982187986,1346678037,850628853,-0.0194024623628,-0.00740113891283,-0.592043841958,0.805638167416,-0.00445058959259,-0.442179165993,-0.0136135681656,0.24525,-0.35316,10.28088
4217,1347543963,988496065,1346678037,870618820,-0.0192824566493,-0.00695291068939,-0.591764298084,0.80585039518,-0.112050137978,0.439561172115,-0.0505272818452,0.15696,-0.36297,9.62361
4218,1347543964,5196094,1346678037,890609026,-0.0211476488834,-0.00699316018423,-0.591633321528,0.805899426427,0.0659734457254,-0.10471975512,0.0269653369433,0.23544,-0.28449,9.87867
4219,1347543964,31518936,1346678037,910598993,-0.0224085957695,-0.00487689455278,-0.59164594993,0.805871665135,0.0261799387799,-0.632769120311,-0.0421497014357,0.18639,-0.36297,9.9081
4220,1347543964,44538021,1346678037,930588961,-0.0233871757703,-0.00297529734214,-0.59136914523,0.806056276996,-0.368351738633,0.416261026601,-0.0159697626557,0.08829,-0.37278,9.64323
4221,1347543964,64826011,1346678037,950578928,-0.0257088388295,-0.0028887554173,-0.591591762827,0.805822497113,-0.230383461263,0.390866485984,-0.065188047562,0.24525,-0.36297,9.83943
4222,1347543964,84551095,1346678037,970568895,-0.0286382234825,0.000376964806513,-0.592504832489,0.805057596406,-0.279863545557,-0.786445360949,-0.147131255943,0.2943,-0.28449,9.77076
4223,1347543964,104649066,1346678037,990558863,-0.03108632241,0.00388032707247,-0.59430706327,0.803627835611,-0.385106899453,0.777805981151,-0.0340339204139,0.27468,-0.18639,9.93753
4224,1347543964,137552022,1346678038,10548830,-0.0357822205198,0.00532705887485,-0.595010289761,0.802903487486,-0.491659250287,0.420973415581,-0.0929387826687,0.22563,-0.3924,10.13373
4225,1347543964,175565004,1346678038,30539036,-0.0387568558949,0.00822198075541,-0.595673810517,0.802248724909,-0.373064127614,-0.83383105014,-0.187448361664,0.28449,-0.46107,9.88848
4226,1347543964,181636095,1346678038,50529003,-0.0403338335054,0.0109429199768,-0.596110943406,0.801813680058,-0.31520646291,0.251065612899,0.0010471975512,0.14715,-0.54936,10.03563
4227,1347543964,190237998,1346678038,70518970,-0.0445085922483,0.0110419545998,-0.596688701392,0.801161440713,-0.194516945135,0.576220452546,-0.0167551608191,0.25506,-0.59841,10.6929
4228,1347543964,205023050,1346678038,90508938,-0.0460467990647,0.0114934844228,-0.597664811232,0.800340156138,-0.276983752292,-0.58643062867,-0.153152641863,0.31392,-0.55917,10.24164
4229,1347543964,231503009,1346678038,110498905,-0.0455530210752,0.0135307009206,-0.599353893794,0.79907243251,-0.362068553326,-0.187186562276,-0.0984365698125,0.24525,-0.59841,10.23183
4230,1347543964,244630098,1346678038,130488873,-0.0462978395987,0.0141787749727,-0.600594999967,0.798085909163,0.407098048028,0.848753615245,0.0348193185773,0.17658,-0.51993,10.09449
4231,1347543964,264659881,1346678038,150478840,-0.0486002188132,0.0140823040016,-0.602421336207,0.796572809684,-0.718377520121,-0.705811149507,-0.105505153283,0.24525,-0.41202,10.0062
4232,1347543964,284615039,1346678038,170469046,-0.0484642807821,0.0145777608447,-0.603101952436,0.79605699378,-0.20106192983,-0.456578132322,-0.207868713913,0.2943,-0.46107,10.05525
4233,1347543964,316498994,1346678038,190459013,-0.0476765744428,0.0134696141775,-0.603618081623,0.7957328228,0.410239640681,0.544542726622,0.100007366139,0.23544,-0.47088,9.98658
4234,1347543964,337373971,1346678038,210448980,-0.0492016847878,0.0129225728306,-0.604267330127,0.795156082204,-0.548731516827,-0.514697596413,-0.0287979326579,0.33354,-0.53955,10.32993
4235,1347543964,379534959,1346678038,230438948,-0.0470055676429,0.0127962425884,-0.604398716511,0.795191124363,0.207606914525,-0.258395995758,-0.11178833859,0.22563,-0.38259,9.20178
4236,1347543964,385652065,1346678038,250428915,-0.0472556088199,0.0114584039785,-0.604505283526,0.795115698878,0.4269948015,0.590095820099,0.010471975512,0.15696,-0.42183,9.69228
4237,1347543964,392704963,1346678038,270418882,-0.0460730980466,0.00972538827143,-0.60516672956,0.794704923788,0.00863937979737,-0.551611310093,-0.0209439510239,0.30411,-0.59841,9.9081
4238,1347543964,404536008,1346678038,290408850,-0.0418615523334,0.00808627797135,-0.605735513389,0.794522945146,-0.120951317163,-0.396887871904,-0.184044969623,0.30411,-0.48069,9.0252
4239,1347543964,431519031,1346678038,310399055,-0.039839230544,0.00556546948307,-0.605909331739,0.794516043243,0.965777941591,0.815505092994,0.0659734457254,0.24525,-0.36297,9.53532
4240,1347543964,444538116,1346678038,330389023,-0.03636388917,0.00381324977034,-0.606333092706,0.794369754825,-0.00261799387799,-0.578576647036,0.0848230016469,0.28449,-0.37278,9.43722
4241,1347543964,464560031,1346678038,350378990,-0.0331934396486,0.0033777010525,-0.606531194327,0.794359299692,0.06780604144,0.488779457021,-0.0856083998103,0.31392,-0.33354,9.35874
4242,1347543964,486310958,1346678038,370368958,-0.0300806594624,0.00013898550554,-0.60696190798,0.794161429981,0.38903389027,0.673086226032,0.0960803753223,0.37278,-0.38259,9.67266
4243,1347543964,504693031,1346678038,390358925,-0.0280220294587,-0.00175668853863,-0.607169346331,0.794076233611,0.377776516594,-0.610777971735,0.0662352451132,0.40221,-0.52974,9.79038
4244,1347543964,537404060,1346678038,410348892,-0.0245018576705,-0.00202417501108,-0.607431173471,0.793991770223,0.102101761242,0.265726378616,-0.0193731546971,0.25506,-0.37278,9.24102
4245,1347543964,575649976,1346678038,430338860,-0.0233745050614,-0.00441569311791,-0.607773838336,0.79375380037,0.146607657168,0.564177680707,0.0675442420522,0.24525,-0.17658,9.48627
4246,1347543964,581402063,1346678038,450328827,-0.0217516658358,-0.00541546175052,-0.608802737531,0.793004895686,0.340862802914,-0.722566310326,0.0240855436775,0.38259,-0.31392,9.67266
4247,1347543964,590187072,1346678038,470319033,-0.0188815818924,-0.00453629759879,-0.608931361087,0.792985186088,0.151320046148,0.508152611718,0.0895353906273,0.27468,-0.38259,9.25083
4248,1347543964,604813098,1346678038,490309000,-0.0196256404952,-0.00550366990767,-0.609000712128,0.792907735162,-0.432492588644,0.32358404332,0.0659734457254,0.41202,-0.28449,9.91791
4249,1347543964,631589889,1346678038,510298967,-0.018307434225,-0.00464587302885,-0.608998059777,0.792946793236,0.205512519422,-0.625962336228,-0.0672824426644,0.30411,-0.21582,9.34893
4250,1347543964,644649028,1346678038,530288935,-0.0173839360823,-0.00315222062995,-0.609135662882,0.792869224069,0.0248709418409,0.473856891916,0.0460766922527,0.3924,-0.20601,9.08406
4251,1347543964,664625883,1346678038,550278902,-0.0187781770347,-0.0029583984798,-0.609278958537,0.792728060958,0.673086226032,0.499775031309,0.209701309627,0.37278,-0.24525,9.66285
4252,1347543964,684595108,1346678038,570268869,-0.0187904092066,-0.000961905506679,-0.609553414845,0.792521690373,-0.484590666816,-0.625438737452,-0.00785398163397,0.41202,-0.16677,9.49608
4253,1347543964,705641031,1346678038,590258837,-0.0195029314035,0.000706086702382,-0.610309924554,0.791922302438,-0.228550865549,0.903731486683,0.0345575191895,0.44145,-0.21582,9.63342
4254,1347543964,738976001,1346678038,610249043,-0.0207713475673,0.00236031432337,-0.610856095357,0.791465609362,0.259443193309,0.16650441064,0.166242611252,0.48069,-0.38259,9.78057
4255,1347543964,775624036,1346678038,630239010,-0.020758032999,0.00567166962345,-0.611307467742,0.791100572691,-0.533285352947,-0.281696141272,0.0217293491873,0.37278,-0.38259,9.75114
4256,1347543964,782460927,1346678038,650228977,-0.0211574785412,0.00687163381169,-0.611569080086,0.790878247288,-0.0890117918517,0.696648170934,0.05471607205,0.31392,-0.3924,9.63342
4257,1347543964,788631916,1346678038,670218945,-0.0218619968681,0.00753154334132,-0.61169910967,0.790752507537,-0.171740398396,0.441131968442,0.0541924732744,0.44145,-0.35316,10.04544
4258,1347543964,816557884,1346678038,690208912,-0.02162924268,0.00969570778842,-0.612422858715,0.790174924453,0.160221225333,-0.420711616193,0.0644026493986,0.47088,-0.40221,10.05525
4259,1347543964,831789970,1346678038,710198879,-0.0208217235269,0.0113161139533,-0.613426053091,0.789396528231,-0.256825199431,-0.0932005820565,0.0780162175641,0.2943,-0.51993,9.99639
4260,1347543964,844749927,1346678038,730188847,-0.0203710184781,0.011757309458,-0.613899231872,0.789033915866,-0.00340339204139,0.828856861772,0.0675442420522,0.3924,-0.47088,10.52613
4261,1347543964,864615917,1346678038,750179052,-0.0207388650405,0.0132756617386,-0.614280499914,0.788703444717,-0.290073721681,0.0439822971503,0.0528834763354,0.41202,-0.32373,10.26126
4262,1347543964,884443998,1346678038,770169020,-0.0204587656507,0.0156235155414,-0.614775094296,0.788282264233,-0.0429350995991,-0.402123859659,0.00209439510239,0.30411,-0.25506,10.37898
4263,1347543964,904625892,1346678038,790158987,-0.0191690995814,0.0168500916095,-0.615224880781,0.787938427862,-0.0976511716491,-0.0120427718388,0.0937241808321,0.2943,-0.45126,10.28088
4264,1347543964,937371015,1346678038,810148954,-0.0188921811343,0.0187601666993,-0.61572145085,0.787513959623,0.0502654824574,0.953211570977,0.172002197784,0.31392,-0.47088,10.62423
4265,1347543964,975508928,1346678038,830138922,-0.0193307672816,0.0204595766555,-0.616287644545,0.78701795808,-0.662090651744,-0.374896723328,0.0337721210261,0.26487,-0.30411,10.78119
4266,1347543964,982403993,1346678038,850128889,-0.0192321440411,0.0228423914311,-0.616688852036,0.78664045762,-0.048171087355,-0.369137136797,-0.0484328867428,0.13734,-0.26487,9.84924
4267,1347543964,990154981,1346678038,870118856,-0.0187010672832,0.0252102863977,-0.616877484521,0.7864330109,0.379609112309,0.650833278069,0.194516945135,0.20601,-0.43164,10.31031
4268,1347543965,4755020,1346678038,890108824,-0.0179429710038,0.0272966927975,-0.617208331867,0.786121374489,0.319657052503,1.0856820612,0.228812664936,0.31392,-0.47088,9.92772
4269,1347543965,31507968,1346678038,910099030,-0.0171654559754,0.0292611642405,-0.617607685995,0.785754336666,-0.471500697426,-0.412857634559,-0.0578576647036,0.26487,-0.33354,9.26064
4270,1347543965,44591903,1346678038,930088997,-0.0156835585453,0.0321148068639,-0.617962986715,0.785394430985,0.146869456555,0.610777971735,0.059952059806,0.20601,-0.25506,9.30969
4271,1347543965,64512968,1346678038,950078964,-0.0147694981462,0.0339659371783,-0.618219580922,0.785132298916,0.113359134917,0.670730031541,0.272794962087,0.18639,-0.41202,9.92772
4272,1347543965,84542036,1346678038,970068932,-0.0142763986858,0.0368227468747,-0.618553983986,0.784749156513,-0.219387886976,-0.238237442897,0.111526539202,0.05886,-0.32373,9.46665
4273,1347543965,104432106,1346678038,990058899,-0.0122112295173,0.0388663230219,-0.618589290168,0.784657622723,-0.0869173967493,0.706334748282,0.0646644487864,0.05886,-0.22563,9.33912
4274,1347543965,142143011,1346678039,10048866,-0.0121314642355,0.0409245055659,-0.618676924134,0.784485102449,0.185353966562,0.690364985626,0.150011049209,0.18639,-0.37278,9.70209
4275,1347543965,185632944,1346678039,30038834,-0.0115008667575,0.0442263637574,-0.618889707409,0.784147491787,-0.144251462677,-0.635910712964,0.173049395335,0.1962,-0.35316,9.56475
4276,1347543965,192660093,1346678039,50029039,-0.0103852115127,0.0465909481638,-0.619154254703,0.783817223474,0.0387463093943,1.11526539202,0.137182879207,0.0981,-0.35316,9.27045
4277,1347543965,198509931,1346678039,70019007,-0.00958168222973,0.0473055756004,-0.619385763141,0.783601716627,-0.0832522053201,0.289550122906,0.119904119612,0.18639,-0.48069,9.57456
4278,1347543965,205717086,1346678039,90008974,-0.00828430078147,0.049625505511,-0.619440869596,0.783429440752,0.217555291261,-0.451603943954,0.140062672473,0.05886,-0.4905,9.34893
4279,1347543965,231656074,1346678039,109998941,-0.00644636833021,0.0523164049546,-0.61980863132,0.782980650239,-0.215722695546,0.010471975512,0.120427718388,-0.04905,-0.42183,9.55494
4280,1347543965,244628906,1346678039,129988909,-0.00619100798132,0.0520362037737,-0.620377877753,0.782550441641,0.225409272895,0.916559656685,0.248447619021,0.07848,-0.38259,9.93753
4281,1347543965,264595985,1346678039,149978876,-0.00603892741771,0.0512483566891,-0.620436489729,0.782557154146,0.0463384916404,-0.617846555206,-0.00287979326579,0.0,-0.42183,9.97677
4282,1347543965,284569025,1346678039,169968843,-0.00396109929085,0.0522899889536,-0.620719577494,0.782276979633,-0.0253945406165,-0.439561172115,0.0646644487864,-0.03924,-0.43164,9.29007
4283,1347543965,316607952,1346678039,189959049,-0.00247361296661,0.051343448662,-0.621005854643,0.782118571584,0.48773225947,0.91237086648,0.283266937599,-0.01962,-0.53955,9.54513
4284,1347543965,338634967,1346678039,209949017,0.00103181304986,0.0495714402698,-0.621365584001,0.781950394009,0.466526509058,0.104457955732,0.207606914525,0.00981,-0.62784,10.07487
4285,1347543965,375385999,1346678039,229938984,0.00417413742782,0.0480702267368,-0.621358342179,0.78203941108,-0.0431968989869,-0.744819258289,0.0374373124553,-0.13734,-0.47088,9.09387
4286,1347543965,382412910,1346678039,249928951,0.00792528962603,0.0462027453685,-0.621512766208,0.782000241397,1.00504784976,0.64952428113,0.186662963501,-0.0981,-0.47088,9.81981
4287,1347543965,388729095,1346678039,269918919,0.0109605782745,0.0430123879541,-0.621800909476,0.781916510365,0.880954939944,0.570199066627,0.305258086174,0.0,-0.51993,9.68247
4288,1347543965,405662059,1346678039,289908886,0.0147850395164,0.0398546145654,-0.621805560469,0.782017171982,0.246091424531,-0.455007335995,0.0903207887907,-0.07848,-0.43164,9.29988
4289,1347543965,431536912,1346678039,309898853,0.018208360689,0.0381347997109,-0.621924946101,0.781935773622,0.207083315749,0.233786853305,0.111002940427,-0.05886,-0.30411,10.03563
4290,1347543965,444436073,1346678039,329888821,0.0193193450602,0.0349113218387,-0.6220876404,0.781930259151,0.916297857297,0.355785368019,0.252636409226,-0.12753,-0.21582,9.62361
4291,1347543965,464904069,1346678039,349879026,0.0206756715192,0.0328297278571,-0.622258082574,0.781850116229,-0.0285361332701,-0.972322926286,0.161006623496,-0.16677,-0.36297,9.70209
4292,1347543965,484424114,1346678039,369868994,0.0216396106645,0.0297211744829,-0.622116887513,0.782060712035,0.205250720035,0.191113553093,0.197134939013,-0.1962,-0.37278,9.18216
4293,1347543965,504476070,1346678039,389858961,0.0214122972378,0.0256673665861,-0.622050790139,0.782263072315,0.0382227106187,0.298189502703,0.191375352481,-0.04905,-0.43164,9.68247
4294,1347543965,538852930,1346678039,409848928,0.0209346139858,0.0232621535016,-0.621847014661,0.782513197658,0.335626815159,-0.788016157275,0.187710161052,-0.14715,-0.41202,9.5157
4295,1347543965,575388908,1346678039,429838896,0.0209614085763,0.0217956619487,-0.621205030541,0.783064415295,-0.0225147473507,-0.0387463093943,0.225671072283,-0.15696,-0.33354,9.74133
4296,1347543965,582340002,1346678039,449828863,0.0189375934429,0.0188373627105,-0.620991458584,0.783362068067,0.244782427592,0.52333697621,0.260228591472,-0.14715,-0.35316,10.08468
4297,1347543965,588335990,1346678039,469818830,0.0169870113352,0.0163759440499,-0.621032424228,0.783429638168,-0.160744824109,-0.272271363311,0.189804556154,-0.03924,-0.42183,10.50651
4298,1347543965,605628967,1346678039,489809036,0.0167688640217,0.0161039060873,-0.620968227508,0.78349086136,-0.130376095124,-0.586954227446,0.0709476340936,-0.02943,-0.38259,10.18278
4299,1347543965,631413936,1346678039,509799004,0.0154909326949,0.0157832169909,-0.620352527221,0.784011264611,0.0541924732744,-0.00340339204139,0.12723450247,-0.14715,-0.35316,9.7119
4300,1347543965,644421100,1346678039,529788971,0.0141510697333,0.0149534703387,-0.61988254257,0.784424486084,0.215984494934,0.191113553093,0.290597320457,-0.12753,-0.45126,10.16316
4301,1347543965,664601087,1346678039,549778938,0.0129960457536,0.0153098736996,-0.620144214802,0.784230746279,-0.137444678595,-0.347931386385,0.143204265126,-0.04905,-0.51993,10.34955
4302,1347543965,686291933,1346678039,569768906,0.0131633087667,0.0154006767976,-0.619664301311,0.784605442332,-0.390604686596,-0.439561172115,0.106814150222,-0.10791,-0.38259,9.89829
4303,1347543965,704396009,1346678039,589758873,0.0121702051911,0.0164070649255,-0.619365989004,0.784836585533,-0.0973893722613,0.623867941125,0.111526539202,-0.13734,-0.33354,10.06506
4304,1347543965,738696098,1346678039,609748840,0.0111185153416,0.0163475443057,-0.6192253644,0.784964384221,0.0308923277603,-0.277245551679,0.174096592886,-0.15696,-0.42183,10.09449
4305,1347543965,775875091,1346678039,629739046,0.0104775545182,0.0170762015536,-0.619412406559,0.784810101103,0.117286125734,-0.31520646291,0.123569311041,-0.18639,-0.47088,9.89829
4306,1347543965,782553911,1346678039,649729013,0.0101976306557,0.0189655738258,-0.619572879435,0.784643716859,-0.379870911697,-0.33667401271,0.153938040026,-0.26487,-0.44145,9.72171
4307,1347543965,788625001,1346678039,669718981,0.00930586293828,0.0206671165131,-0.619182507252,0.784919928352,-0.0693768377668,0.601614993162,0.21179570473,-0.14715,-0.36297,9.89829
4308,1347543965,816689014,1346678039,689708948,0.00783684667814,0.0209331667893,-0.61882545762,0.785210442725,-0.241902634326,0.334841416995,0.129852496348,-0.23544,-0.41202,9.54513
4309,1347543965,831440925,1346678039,709698915,0.00789619536118,0.0224363832654,-0.618371807156,0.785525662802,0.106028752059,-0.685390797258,0.0761836218496,-0.24525,-0.48069,9.08406
4310,1347543965,844523906,1346678039,729688883,0.00785450638297,0.0236820397931,-0.617716822079,0.786004704465,-0.0151843644924,-0.0816814089933,0.123307511653,-0.31392,-0.46107,9.16254
4311,1347543965,864976882,1346678039,749678850,0.00676382050782,0.023985463536,-0.617769807089,0.785964002815,0.250803813512,0.788016157275,0.270176968209,-0.23544,-0.45126,9.76095
4312,1347543965,884488105,1346678039,769669056,0.00540133781753,0.0239467416359,-0.61776378261,0.785980462868,-0.62098814786,-0.526478568864,0.106552350834,-0.18639,-0.40221,9.45684
4313,1347543965,904371976,1346678039,789659023,0.00619143813124,0.0250987379442,-0.617593091959,0.786072828822,-0.0623082542962,-0.66497044501,0.0641408500108,-0.36297,-0.38259,8.87805
4314,1347543965,938759088,1346678039,809648991,0.00624317140301,0.0251678535049,-0.617522488826,0.786125675548,0.182212373908,0.356570766182,0.224100275956,-0.44145,-0.46107,9.30969
4315,1347543965,975459098,1346678039,829638958,0.00440307576837,0.0249479405568,-0.617451305983,0.786201054391,0.378823714145,0.401076662108,0.309185076991,-0.3924,-0.48069,10.09449
4316,1347543965,982601881,1346678039,849628925,0.00378174788856,0.0248757748541,-0.6171760992,0.786422632421,-0.519671784781,-0.457101731097,0.0753982236862,-0.32373,-0.40221,9.6138
4317,1347543965,990144968,1346678039,869618893,0.00373373688666,0.0245658532654,-0.616431268654,0.787016562144,-0.189542756767,-0.391913683535,0.0863937979737,-0.38259,-0.36297,9.35874
4318,1347543966,6845951,1346678039,889608860,0.00249515907625,0.0239817162399,-0.616306954714,0.787136829934,-0.0824668071567,0.0858701991981,0.14032447186,-0.42183,-0.34335,9.43722
4319,1347543966,31470060,1346678039,909598827,0.000187992181865,0.0230181020346,-0.616327321769,0.787153583539,0.384321501289,0.0630936524596,0.306567083113,-0.40221,-0.38259,9.94734
4320,1347543966,46248912,1346678039,929589033,-0.00272452504385,0.0224158466296,-0.616265746178,0.787214479586,-0.449247749463,-0.71366513114,0.176976386152,-0.37278,-0.4905,10.13373
4321,1347543966,65057992,1346678039,949579000,-0.00396797057673,0.0213948879316,-0.616292765928,0.787216450949,-0.246091424531,-0.284837733925,0.113620934305,-0.34335,-0.51012,9.88848
4322,1347543966,86200952,1346678039,969568968,-0.00546343309749,0.0192218388104,-0.615594929397,0.787809339061,-0.118595122673,0.0989601685881,0.114406332468,-0.34335,-0.54936,9.72171
4323,1347543966,105606079,1346678039,989558935,-0.00768216814909,0.0169583908614,-0.615236176759,0.788122987915,0.412857634559,0.000261799387799,0.211533905342,-0.41202,-0.56898,9.66285
4324,1347543966,138637065,1346678040,9548903,-0.00938174862197,0.014936918651,-0.614248553012,0.788915449447,0.10105456369,-0.66497044501,0.248185819634,-0.44145,-0.48069,9.27045
4325,1347543966,175324916,1346678040,29538870,-0.0103564038661,0.0136906411504,-0.613723243338,0.789334588011,-0.173311194723,-0.40683624864,0.074351026135,-0.41202,-0.46107,9.30969
4326,1347543966,182401895,1346678040,49528837,-0.0103109070191,0.0117627225814,-0.613209664152,0.789765301431,0.0623082542962,0.183521370847,0.125925505531,-0.45126,-0.48069,9.29007
4327,1347543966,192193984,1346678040,69519043,-0.0108655633839,0.00919964114829,-0.612769118797,0.790133731202,0.344266194956,0.158126830231,0.215460896159,-0.40221,-0.57879,9.78057
4328,1347543966,206954956,1346678040,89509010,-0.010760136422,0.00833890002856,-0.612505463187,0.790349125246,0.140586271248,-0.369137136797,0.159959425945,-0.42183,-0.50031,9.66285
4329,1347543966,231476068,1346678040,109498978,-0.00959082375023,0.00842345470306,-0.612366454933,0.790470990223,0.143466064514,-0.196087741462,0.170693200845,-0.34335,-0.42183,9.93753
4330,1347543966,246227979,1346678040,129488945,-0.00777755414949,0.00834208081717,-0.612299133321,0.790543920774,-0.200276531666,-0.0350811179651,0.0785398163397,-0.41202,-0.47088,10.26126
4331,1347543966,265702009,1346678040,149478912,-0.00603996466332,0.00787820749522,-0.612236901076,0.790612060137,0.369660735572,0.522027979272,0.144251462677,-0.45126,-0.3924,10.41822
4332,1347543966,286361932,1346678040,169468880,-0.00509096581237,0.0082479985735,-0.612302087209,0.790564486039,0.0848230016469,0.461290521302,0.0774926187885,-0.42183,-0.37278,10.60461
4333,1347543966,318164110,1346678040,189458847,-0.00444631239235,0.0080816997134,-0.612442663666,0.790461194593,0.191113553093,-0.103934356956,0.14032447186,-0.3924,-0.36297,10.62423
4334,1347543966,339010000,1346678040,209449053,-0.00409167019279,0.0082521467379,-0.612716842676,0.790248841195,0.0230383461263,-0.31520646291,0.0408407044967,-0.45126,-0.41202,10.42803
4335,1347543966,379406929,1346678040,229439020,-0.00400789507739,0.00907150826648,-0.612775462544,0.790194834847,-0.15105824676,-0.373849525777,0.0767072206252,-0.38259,-0.34335,10.25145
4336,1347543966,386987924,1346678040,249428988,-0.00517407012444,0.00998373117132,-0.613243914414,0.789813557458,-0.196087741462,0.338506608424,0.069115038379,-0.42183,-0.24525,10.17297
4337,1347543966,392765998,1346678040,269418955,-0.00722854374444,0.0100388172564,-0.613585599389,0.789531305602,-0.200538331054,0.350025781487,0.0903207887907,-0.38259,-0.26487,10.03563
4338,1347543966,407932043,1346678040,289408922,-0.0101859772127,0.0103559697434,-0.613923119998,0.789232160071,-0.275412955965,-0.469406302324,0.0264417381677,-0.48069,-0.33354,9.5157
4339,1347543966,431446075,1346678040,309398890,-0.0117204500613,0.0117907359287,-0.614654901797,0.788620923698,-0.346622389446,-0.58171823969,-0.000785398163397,-0.55917,-0.38259,9.32931
4340,1347543966,446216106,1346678040,329388857,-0.013909674242,0.0135204865685,-0.615376283372,0.787994763478,-0.0261799387799,0.360759556387,0.109170344712,-0.51012,-0.37278,9.81
4341,1347543966,464570045,1346678040,349378824,-0.0164481820958,0.0139555113105,-0.615434649524,0.787892691409,-0.0193731546971,0.508414411106,0.163101018599,-0.43164,-0.36297,9.82962
4342,1347543966,486494064,1346678040,369369030,-0.0188351989108,0.0147262610544,-0.615760437174,0.787570604155,-0.473856891916,-0.407098048028,-0.0272271363311,-0.50031,-0.44145,9.87867
4343,1347543966,505506992,1346678040,389358997,-0.0190198848349,0.0167559968222,-0.615777749457,0.787512059479,-0.298713101479,-0.522551578047,0.0562868683768,-0.56898,-0.37278,9.08406
4344,1347543966,538454055,1346678040,409348965,-0.0209430113374,0.0184013048248,-0.616418333634,0.786925168117,-0.0274889357189,0.72439890604,0.121474915939,-0.61803,-0.40221,9.58437
4345,1347543966,575573921,1346678040,429338932,-0.0223074243109,0.0189225377376,-0.616539771974,0.78678016368,0.0259181393921,0.385106899453,0.170693200845,-0.59841,-0.45126,9.79038
4346,1347543966,582751989,1346678040,449328899,-0.0226417777926,0.0201919721096,-0.616706116943,0.786608669851,-0.411025038845,-0.550564112542,-0.0814196096055,-0.55917,-0.36297,9.32931
4347,1347543966,590485095,1346678040,469318867,-0.0222850772926,0.0214913435158,-0.617212953418,0.786186789266,0.227765467385,-0.283005138211,0.0827286065445,-0.61803,-0.36297,9.46665
4348,1347543966,608680963,1346678040,489308834,-0.0234798996966,0.0223650309339,-0.618074236851,0.785450658821,0.211010306566,0.75057884482,0.181165176357,-0.66708,-0.44145,9.70209
4349,1347543966,631567001,1346678040,509299040,-0.024168393009,0.0226141387562,-0.618819403605,0.78483567403,-0.294262511886,-0.175667389213,0.180379778194,-0.56898,-0.47088,9.94734
4350,1347543966,646214962,1346678040,529289007,-0.0244149628851,0.0237083608232,-0.618984964773,0.784665174835,-0.434586983747,-0.537997741927,-0.0714712328692,-0.55917,-0.31392,9.46665
4351,1347543966,665760993,1346678040,549278975,-0.0251639445391,0.0247318234384,-0.618739694405,0.784803353314,0.0767072206252,0.0795870138909,0.0769690200129,-0.63765,-0.30411,9.73152
4352,1347543966,686232089,1346678040,569268942,-0.0261412181503,0.0251811871445,-0.618926913519,0.784609469895,0.390604686596,0.573078859892,0.107337748998,-0.62784,-0.42183,10.15335
4353,1347543966,704560041,1346678040,589258909,-0.0258145719289,0.0251695847765,-0.619338916549,0.784295484066,0.0921533845053,0.182212373908,0.0997455667515,-0.55917,-0.51993,10.57518
4354,1347543966,739079952,1346678040,609248877,-0.0248022871504,0.0244813321901,-0.619366627574,0.784328050992,0.0502654824574,-0.23666664657,-0.0301069295969,-0.54936,-0.48069,10.11411
4355,1347543966,775628089,1346678040,629238844,-0.0223048372645,0.0228566313155,-0.619703158414,0.784186243242,0.00837758040957,-0.57569685377,-0.0816814089933,-0.51012,-0.55917,9.81
4356,1347543966,782562971,1346678040,649229050,-0.0183968071655,0.0218900609123,-0.619946573893,0.784122840018,0.733300085225,0.306828882501,0.129590696961,-0.51993,-0.52974,9.34893
4357,1347543966,791239976,1346678040,669219017,-0.0156777497105,0.0199791692673,-0.62042225348,0.783856663138,0.507629012943,0.7767587836,0.175929188601,-0.45126,-0.50031,9.77076
4358,1347543966,816540002,1346678040,689208984,-0.01241439745,0.0181914254544,-0.620957626507,0.783534671127,0.311017672705,-0.557370896624,-0.0455530934771,-0.53955,-0.24525,8.59356
4359,1347543966,831403970,1346678040,709198952,-0.00820556849575,0.0173146336688,-0.621329931965,0.783314743734,0.118071523897,0.0413643032723,0.0431968989869,-0.60822,-0.15696,8.58375
4360,1347543966,846249103,1346678040,729188919,-0.00733933104819,0.0157382914199,-0.621438157996,0.783270742585,0.882525736271,0.676751417461,0.253160008002,-0.57879,-0.28449,9.27045
4361,1347543966,864934921,1346678040,749178886,-0.00334973739381,0.0134652009623,-0.621561996134,0.783242077894,-0.115977128795,-0.623606141738,-0.0544542726622,-0.44145,-0.32373,8.67204
4362,1347543966,886415004,1346678040,769168854,0.00138207761668,0.0133878121668,-0.621710770161,0.783131262697,0.420973415581,0.621249947247,0.0740892267472,-0.53955,-0.2943,8.39736
4363,1347543966,906440019,1346678040,789158821,0.00239921423588,0.0115787593192,-0.621880622481,0.783022775841,0.265464579228,0.26284658535,0.215199096771,-0.44145,-0.28449,9.03501
4364,1347543966,938644886,1346678040,809149027,0.00509041562292,0.0130062758063,-0.621727903297,0.783108765575,-0.217031692485,-0.0630936524596,-0.075660023074,-0.56898,0.0,8.22078
4365,1347543966,975590944,1346678040,829138994,0.00466946847308,0.0128953034147,-0.621796866908,0.783058467496,0.479878277836,0.344789793731,0.230121661875,-0.53955,-0.01962,8.89767
4366,1347543966,982161998,1346678040,849128962,0.00429032405189,0.0135328827022,-0.622057838454,0.782842576655,-0.387463093943,-0.514173997638,0.0581194640914,-0.55917,-0.15696,8.49546
4367,1347543966,988600969,1346678040,869118929,0.00303379317875,0.013638359232,-0.621915631093,0.782959602444,-0.361806753938,0.186401164113,0.0526216769476,-0.55917,-0.31392,8.13249
4368,1347543967,4733085,1346678040,889108896,0.00202483081607,0.013771175042,-0.621910361845,0.782964722467,0.0259181393921,-0.462075919465,0.164410015538,-0.51012,-0.2943,8.52489
4369,1347543967,31431913,1346678040,909098864,-0.000387044412994,0.014798598172,-0.622088755831,0.782806765146,-0.326725635973,0.18561576595,0.062570053684,-0.51012,-0.27468,8.49546
4370,1347543967,46078920,1346678040,929088831,-0.0036017768339,0.0146797355615,-0.622152067931,0.782750494689,-0.348454985161,0.222267680241,0.132470490226,-0.43164,-0.18639,8.56413
4371,1347543967,64925909,1346678040,949079037,-0.00568766256659,0.0165506601682,-0.62169569407,0.783063337232,-0.331176225566,-0.557109097237,0.142418866963,-0.40221,-0.1962,8.72109
4372,1347543967,84868907,1346678040,969069004,-0.00919173441246,0.0174588449238,-0.622349474382,0.782490787478,-0.244782427592,0.874671754637,0.176452787377,-0.51993,-0.31392,8.81919
4373,1347543967,104556083,1346678040,989058971,-0.0129475965346,0.0177800661751,-0.622608380076,0.782224414123,-0.635910712964,-0.950593577099,0.0463384916404,-0.45126,-0.21582,8.95653
4374,1347543967,137779951,1346678041,9048939,-0.0156751835926,0.0206480305632,-0.623203809777,0.781629681456,-0.337197611485,-0.306567083113,0.0342957198017,-0.56898,-0.25506,8.97615
4375,1347543967,175528049,1346678041,29038906,-0.0201708554728,0.0214466691797,-0.623240985862,0.781475431803,-0.283528736986,0.675180621134,0.236143047795,-0.46107,-0.37278,9.64323
4376,1347543967,182208061,1346678041,49028873,-0.0237193751817,0.0231536873534,-0.623042197042,0.781485584453,-0.568104671524,-0.506058216616,-0.00785398163397,-0.37278,-0.35316,9.06444
4377,1347543967,190532922,1346678041,69018841,-0.0239804605252,0.0261776348334,-0.623403780374,0.781093717529,-0.800320728502,-0.47699848457,0.0620464549084,-0.34335,-0.33354,9.2214
4378,1347543967,207133054,1346678041,89009047,-0.0259960610261,0.0283950990536,-0.624126388732,0.780374380697,0.175143790438,0.931220422402,0.188757358603,-0.45126,-0.32373,9.99639
4379,1347543967,231512069,1346678041,108999014,-0.028930014221,0.0289071360111,-0.625054628769,0.779508911315,-0.541139334581,-0.287717527191,0.0562868683768,-0.37278,-0.30411,9.6138
4380,1347543967,246236085,1346678041,128988981,-0.0283085345383,0.0295400455685,-0.625230926888,0.779366602211,-0.053407075111,-0.659996256642,-0.0316777259237,-0.42183,-0.41202,9.49608
4381,1347543967,264964103,1346678041,148978949,-0.0264568324748,0.0307329573027,-0.625109910423,0.779482598421,-0.073042029196,0.00314159265359,0.0683296402156,-0.41202,-0.52974,9.95715
4382,1347543967,286719083,1346678041,168968916,-0.0246391063623,0.031050646021,-0.624893712441,0.779702904939,0.396887871904,0.722304510938,0.197920337176,-0.34335,-0.52974,10.77138
4383,1347543967,315593957,1346678041,188958883,-0.0231676147322,0.0312123203923,-0.624889055266,0.779745292574,-0.325678438422,0.345313392507,0.0185877565337,-0.38259,-0.46107,10.91853
4384,1347543967,338205099,1346678041,208948851,-0.0204603056607,0.0302680673638,-0.624870811958,0.779872866788,0.189542756767,-0.473856891916,-0.0620464549084,-0.53955,-0.35316,10.76157
4385,1347543967,375581979,1346678041,228939056,-0.0188544980456,0.0308773821713,-0.624778820818,0.779963153124,0.222005880854,-0.421758813744,0.0476474885794,-0.61803,-0.2943,10.60461
4386,1347543967,382255077,1346678041,248929024,-0.0173394593658,0.0305431226238,-0.624525721186,0.780214127266,0.0905825881785,0.283790536374,0.0510508806208,-0.4905,-0.35316,11.10492
4387,1347543967,390170097,1346678041,268918991,-0.0156909319067,0.0302289780959,-0.624544679864,0.780246080665,0.373849525777,0.216246294322,0.18561576595,-0.42183,-0.40221,11.48751
4388,1347543967,407432079,1346678041,288908958,-0.0152304484477,0.0299686779742,-0.624489489746,0.780309418742,-0.0850848010347,0.204203522483,0.0827286065445,-0.48069,-0.38259,11.33055
4389,1347543967,430520057,1346678041,308898926,-0.0142005384897,0.0290261667161,-0.624397267446,0.780438260696,-0.342433599241,-0.230645260651,-0.0251327412287,-0.47088,-0.33354,11.43846
4390,1347543967,446290016,1346678041,328888893,-0.0128129492043,0.0293649681357,-0.624318965122,0.780512239986,-0.0397935069455,-0.436681378849,0.0246091424531,-0.4905,-0.2943,11.12454
4391,1347543967,464976072,1346678041,348878860,-0.0126445144062,0.0290131101246,-0.624470826826,0.780406651778,0.0361283155163,0.537997741927,-0.00183259571459,-0.51012,-0.24525,10.52613
4392,1347543967,486458063,1346678041,368868828,-0.0126804835237,0.0288247108173,-0.624614955657,0.780297698672,0.0853466004225,-0.00890117918517,0.0633554518474,-0.46107,-0.27468,10.86948
4393,1347543967,504694938,1346678041,388859034,-0.012757844485,0.0291321293739,-0.625078489117,0.779913738106,0.235619449019,-0.166766210028,0.0856083998103,-0.44145,-0.33354,10.76157
4394,1347543967,537729978,1346678041,408849001,-0.011946796994,0.0292892916065,-0.625619064016,0.779487137917,-0.405265452313,-0.18797196044,-0.0591666616426,-0.38259,-0.3924,10.60461
4395,1347543967,575380086,1346678041,428838968,-0.0105379557092,0.0296334760135,-0.626085439976,0.779119907613,-0.056025068989,0.248447619021,0.0295833308213,-0.35316,-0.33354,10.40841
4396,1347543967,582173109,1346678041,448828936,-0.0109760715116,0.0292173013333,-0.626441731573,0.778843137031,0.145036860841,0.620202749696,0.0272271363311,-0.38259,-0.31392,10.40841
4397,1347543967,591120958,1346678041,468818903,-0.0106129330479,0.0288250779047,-0.626731432526,0.778629688633,0.153676240638,-0.636172512352,0.0445058959259,-0.45126,-0.31392,10.01601
4398,1347543967,604629993,1346678041,488808870,-0.00956970776294,0.0296853761943,-0.627174388193,0.77825412683,-0.0722566310326,-0.199752932891,0.0133517687778,-0.37278,-0.2943,10.03563
4399,1347543967,631548881,1346678041,508798838,-0.00897186775192,0.0294419051809,-0.627526581484,0.777986548302,-0.136659280431,0.59952059806,-0.048171087355,-0.45126,-0.28449,9.74133
4400,1347543967,644543886,1346678041,528789043,-0.00896687642239,0.029569993687,-0.627996452374,0.777602511831,-0.0010471975512,0.00549778714378,0.0620464549084,-0.31392,-0.18639,9.94734
4401,1347543967,664971113,1346678041,548779011,-0.00900422596595,0.0313057836722,-0.628463213765,0.777156908717,-0.0164933614313,-0.479092879672,-0.0382227106187,-0.43164,-0.16677,9.55494
4402,1347543967,684662103,1346678041,568768978,-0.00831034321106,0.0329368585599,-0.629746754148,0.776057425184,-0.137444678595,0.727802298082,0.0502654824574,-0.35316,-0.22563,9.81981
4403,1347543967,704545974,1346678041,588758945,-0.00916510266703,0.0333536177924,-0.631009776838,0.775003353933,-0.0848230016469,0.275674755353,0.000785398163397,-0.35316,-0.31392,9.77076
4404,1347543967,737632036,1346678041,608748913,-0.00812149651864,0.035820622921,-0.632041516679,0.774063592647,-0.427518400276,-0.903207887907,-0.132208690839,-0.36297,-0.30411,9.50589
4405,1347543967,775368928,1346678041,628738880,-0.00809910989711,0.0370641778008,-0.632449792514,0.773671707568,0.314944663522,0.862890782186,0.163362817987,-0.54936,-0.28449,9.43722
4406,1347543967,782141923,1346678041,648728848,-0.0102397768391,0.0371671817433,-0.633244839906,0.772990763402,-0.694291976443,-0.546375322337,-0.0473856891916,-0.44145,-0.23544,9.5157
4407,1347543967,788990974,1346678041,668719053,-0.00888596789919,0.0389153578504,-0.633897780907,0.772386067882,-0.156817833292,-0.365733744755,-0.0824668071567,-0.54936,-0.0981,8.3385
4408,1347543967,815710067,1346678041,688709021,-0.00941050999944,0.0398632381102,-0.635054897566,0.771380348224,0.923366440768,1.02363560629,0.258657795146,-0.45126,-0.21582,8.74071
4409,1347543967,831548929,1346678041,708698988,-0.00832945220604,0.0407148227354,-0.635886158694,0.770663166771,-0.315991861074,-0.627794931942,-0.109955742876,-0.26487,-0.3924,9.2214
4410,1347543967,844589948,1346678041,728688955,-0.00734872656871,0.0422941162889,-0.636066860176,0.770438935498,0.365471945368,0.352643775365,0.146869456555,-0.42183,-0.23544,8.51508
4411,1347543967,865098953,1346678041,748678923,-0.00867691725835,0.0431016866113,-0.636884782999,0.769704312643,-0.466788308446,-0.376467519655,-0.0722566310326,-0.38259,-0.22563,8.87805
4412,1347543967,884627103,1346678041,768668890,-0.00751651498878,0.0443261873696,-0.637419212375,0.769204419392,-0.0654498469498,0.433539786195,-0.118071523897,-0.40221,-0.20601,8.36793
4413,1347543967,904697895,1346678041,788658857,-0.00735398320752,0.0439129459855,-0.638519717018,0.768316434215,0.177499984928,0.337983009649,-0.0827286065445,-0.3924,-0.24525,9.29988
4414,1347543967,937649965,1346678041,808648825,-0.00728681761869,0.0468929012493,-0.639802092385,0.767073165143,-0.245306026368,-0.241902634326,-0.211272105954,-0.41202,-0.21582,9.21159
4415,1347543967,975564002,1346678041,828639030,-0.00754527019996,0.0489164988305,-0.64133536181,0.765662588045,-0.285623132089,0.720210115835,-0.16179202166,-0.43164,-0.23544,9.06444
4416,1347543967,982772111,1346678041,848628998,-0.00803204931245,0.0488841285149,-0.643337924644,0.763977841876,0.253945406165,0.499775031309,-0.206036118198,-0.32373,-0.44145,9.57456
4417,1347543967,988995075,1346678041,868618965,-0.00694884506927,0.050959856416,-0.645328218651,0.762172091328,-0.06780604144,-0.671515429705,-0.312588469032,-0.34335,-0.50031,9.70209
4418,1347543968,5194902,1346678041,888608932,-0.00623827269624,0.0529391110436,-0.64790981116,0.75984959767,0.000785398163397,-0.0672824426644,-0.277245551679,-0.53955,-0.37278,9.68247
4419,1347543968,31590938,1346678041,908598900,-0.00664844534419,0.0534714950111,-0.650516438171,0.757578353087,-0.145822259004,0.517839189067,-0.356047167407,-0.51993,-0.28449,10.43784
4420,1347543968,44564008,1346678041,928588867,-0.00617140259517,0.0530219550207,-0.653325976306,0.755192528273,0.307876080052,0.236143047795,-0.31520646291,-0.51012,-0.45126,10.19259
4421,1347543968,65043926,1346678041,948578835,-0.00496133929135,0.0525589620578,-0.656918875555,0.752110717621,-0.0219911485751,0.0350811179651,-0.495324441716,-0.46107,-0.62784,10.38879
4422,1347543968,85067033,1346678041,968569040,-0.00353987820362,0.0512973124659,-0.660294048957,0.749244835757,0.403956455374,-0.510247006821,-0.428303798439,-0.55917,-0.57879,10.62423
4423,1347543968,104557991,1346678041,988559008,-0.00187842681393,0.0494829537796,-0.664214172004,0.745900423989,0.160483024721,-0.305781684949,-0.552396708256,-0.54936,-0.61803,11.02644
4424,1347543968,137443065,1346678042,8548975,0.000130290880635,0.046869304542,-0.668425002433,0.742301331966,0.327511034137,-0.212842902281,-0.473071493753,-0.50031,-0.56898,11.16378
4425,1347543968,175491094,1346678042,28538942,0.001260762737,0.0438261617708,-0.672564394756,0.738738663485,0.545066325398,0.201585528605,-0.527263967027,-0.53955,-0.51012,11.20302
4426,1347543968,183629035,1346678042,48528910,0.0032025124632,0.0403712740517,-0.677145226642,0.73473413299,0.327511034137,-0.0222529479629,-0.523860574986,-0.51012,-0.55917,11.21283
4427,1347543968,188627004,1346678042,68518877,0.00485285323699,0.0373766145002,-0.681914034029,0.730460600374,0.499775031309,0.262584785963,-0.519671784781,-0.46107,-0.54936,11.0853
4428,1347543968,204807996,1346678042,88508844,0.00633027734268,0.0343610777788,-0.686389470834,0.726394340734,0.0840376034835,0.0191113553093,-0.518362787842,-0.45126,-0.51012,11.01663
4429,1347543968,231542110,1346678042,108499050,0.00772269571263,0.0313857222467,-0.691140147391,0.72199764063,0.282743338823,0.0188495559215,-0.591404817038,-0.44145,-0.42183,10.83024
4430,1347543968,248440027,1346678042,128489017,0.0087486041562,0.0290701591246,-0.695572261237,0.717814472668,-0.011780972451,-0.303163691071,-0.662352451132,-0.43164,-0.42183,10.791
4431,1347543968,265296936,1346678042,148478985,0.0103215680344,0.026925226199,-0.70052501109,0.71304502401,0.178808981867,-0.0858701991981,-0.634863515413,-0.3924,-0.46107,10.60461
4432,1347543968,284673929,1346678042,168468952,0.0107034350917,0.02530838492,-0.70572812737,0.707949667963,-0.176714586764,-0.376467519655,-0.73748887543,-0.38259,-0.47088,10.52613
4433,1347543968,316809892,1346678042,188458920,0.011551763595,0.0233154360459,-0.710841775609,0.702870483979,0.505272818452,0.1094321441,-0.654760268886,-0.3924,-0.55917,10.64385
4434,1347543968,338522911,1346678042,208448887,0.0111435515508,0.0214490149922,-0.716031963002,0.697648900934,0.12252211349,0.0460766922527,-0.705811149507,-0.48069,-0.51993,10.41822
4435,1347543968,379542112,1346678042,228438854,0.0108109849974,0.0192247908406,-0.720705938668,0.692889947964,0.54009213703,0.113882733693,-0.63407811725,-0.48069,-0.51993,10.22202
4436,1347543968,386984109,1346678042,248428822,0.00960024522902,0.0173961581959,-0.725512975763,0.687921602344,0.0149225651046,-0.178808981867,-0.618631953369,-0.47088,-0.52974,10.01601
4437,1347543968,392875909,1346678042,268419027,0.00808218720276,0.0160214208846,-0.730748046733,0.682411374845,0.169907802682,-0.409716041906,-0.735656279716,-0.47088,-0.51993,9.82962
4438,1347543968,404757976,1346678042,288408995,0.00755591414266,0.0138268318744,-0.735836437148,0.676975970509,0.110479341651,-0.561559686829,-0.626747734391,-0.48069,-0.59841,9.47646
4439,1347543968,431507110,1346678042,308403015,0.00595167530247,0.0118809420316,-0.740464721774,0.671963850654,-0.18195057452,-0.00706858347058,-0.600829594999,-0.50031,-0.54936,9.30969
4440,1347543968,444659948,1346678042,328397036,0.00394570917709,0.0098544440042,-0.745113222933,0.666853511892,0.0845612022591,0.217293491873,-0.616799357655,-0.41202,-0.46107,9.03501
4441,1347543968,464838027,1346678042,348391056,0.00161878752389,0.00830887882399,-0.748732461453,0.662818258066,0.104457955732,-0.494539043553,-0.558418094176,-0.40221,-0.4905,8.64261
4442,1347543968,484678983,1346678042,368384838,0.000570068830925,0.00769233769855,-0.752142959089,0.658954833092,0.0725184304204,-0.840114235447,-0.515221195189,-0.31392,-0.4905,8.26983
4443,1347543968,504657983,1346678042,388378859,0.000334594067535,0.00733767463125,-0.755300969971,0.655336929631,0.148178453494,0.639575904393,-0.443488162932,-0.3924,-0.59841,7.89705
4444,1347543968,538609027,1346678042,408372879,-0.000898174780428,0.00613226262482,-0.758336032335,0.651834373671,-0.0196349540849,0.441393767829,-0.356570766182,-0.24525,-0.51993,8.21097
4445,1347543968,577661037,1346678042,428369045,3.01856167589e-05,0.00736387578846,-0.761047624665,0.648654210973,-0.050789081233,-0.892474113007,-0.381179908636,-0.21582,-0.46107,7.848
4446,1347543968,582667112,1346678042,448362827,0.000484179750897,0.00875222167204,-0.76351656997,0.645728744572,-0.0141371669412,0.989339886493,-0.312064870257,-0.37278,-0.51993,7.50465
4447,1347543968,588855981,1346678042,468356848,-0.000834424541121,0.00818687689128,-0.765829959156,0.642990476167,-0.0934623814443,-0.0518362787842,-0.380132711084,-0.32373,-0.54936,8.36793
4448,1347543968,604911088,1346678042,488350868,0.000563153501767,0.00967618795214,-0.767714442604,0.64071880639,-0.36756634047,-0.987245491391,-0.346884188834,-0.48069,-0.51012,7.68123
4449,1347543968,631520032,1346678042,508344889,0.00124030620795,0.010667528615,-0.769485588744,0.63857387528,0.188233759828,0.873886356474,-0.192422550032,-0.48069,-0.56898,8.07363
4450,1347543968,644612073,1346678042,528338909,-0.000172029035919,0.00981090963154,-0.771502083911,0.636151122752,-0.070424035318,-0.127496301858,-0.238499242285,-0.36297,-0.53955,8.49546
4451,1347543968,664834022,1346678042,548332930,0.000644009277589,0.010352953978,-0.772713324379,0.634670402589,-0.442179165993,-0.852157007286,-0.330129028015,-0.44145,-0.43164,8.49546
4452,1347543968,684791088,1346678042,568328857,0.00135611667455,0.0111506999218,-0.773475021103,0.633727239882,0.363639349653,0.61261056745,-0.0659734457254,-0.45126,-0.50031,8.83881
4453,1347543968,704457998,1346678042,588322878,0.000604037454749,0.0120945827242,-0.774620889248,0.632309919381,0.300545697193,0.54244833152,0.0609992573572,-0.31392,-0.51012,9.30969
4454,1347543968,738723039,1346678042,608316898,0.00108532256483,0.0135965787707,-0.775475104993,0.631230795079,-0.572293461729,-0.492706447838,-0.194778744523,-0.38259,-0.3924,8.58375
4455,1347543968,775717020,1346678042,628310919,0.00252498697685,0.0141920249699,-0.776066022939,0.630486906214,-0.0531452757232,-0.0513126800086,-0.105505153283,-0.44145,-0.54936,8.86824
4456,1347543968,782654047,1346678042,648304939,0.00278409700082,0.014163922758,-0.776670846703,0.629741238905,0.39845866823,0.703716754404,0.0609992573572,-0.44145,-0.47088,8.70147
4457,1347543968,788795948,1346678042,668298960,0.00162529603189,0.0154636587934,-0.776975922795,0.629338262833,-0.213628300444,-0.241117236163,-0.0424115008235,-0.32373,-0.50031,9.34893
4458,1347543968,816637992,1346678042,688292980,0.00354373574612,0.0160063931778,-0.7769590905,0.629337595416,-0.251327412287,-0.379347312921,-0.120427718388,-0.31392,-0.51993,8.85843
4459,1347543968,831588983,1346678042,708288908,0.00438999580038,0.0157933871333,-0.776961615637,0.629334525262,0.18561576595,0.195825942074,-0.0395317075577,-0.35316,-0.52974,8.90748
4460,1347543968,844544887,1346678042,728282928,0.00459762323173,0.0159568911989,-0.777122038403,0.629130810652,0.366780942307,0.54244833152,0.0916297857297,-0.3924,-0.51012,9.17235
4461,1347543968,864808082,1346678042,748276949,0.00441537197317,0.0164704777717,-0.777549644742,0.628590309991,-0.0670206432766,-0.356308966795,0.066497044501,-0.40221,-0.41202,9.49608
4462,1347543968,885025978,1346678042,768270969,0.00458741600352,0.0168227286055,-0.777924567086,0.628115689456,-0.595593607243,-0.361021355775,-0.0952949771589,-0.41202,-0.32373,9.07425
4463,1347543968,904553890,1346678042,788264990,0.00395011289477,0.0160842122428,-0.777943741976,0.628115617578,0.363377550265,0.316253660461,-0.00471238898038,-0.36297,-0.4905,9.26064
4464,1347543968,938750028,1346678042,808259010,0.00366129002122,0.0157433033554,-0.77778780149,0.628319090278,0.0649262481742,0.294262511886,0.0845612022591,-0.33354,-0.53955,9.48627
4465,1347543968,976250886,1346678042,828253031,0.00306960186134,0.0160547882264,-0.777617823398,0.628524734639,0.180117978806,0.0280125344945,0.0662352451132,-0.30411,-0.57879,9.83943
4466,1347543968,982491970,1346678042,848248959,0.00338321902924,0.016208914872,-0.777119607217,0.629135073722,0.00366519142919,-0.226980069222,0.150796447372,-0.41202,-0.51993,9.76095
4467,1347543968,988679885,1346678042,868242979,0.00302366089783,0.0163712043775,-0.776952084217,0.629339574453,-0.189280957379,-0.338506608424,0.0175405589825,-0.38259,-0.4905,10.05525
4468,1347543969,4771947,1346678042,888237000,0.00288660796892,0.0162616527606,-0.776900053791,0.62940728671,-0.16179202166,0.00418879020479,0.0636172512352,-0.35316,-0.47088,10.18278
4469,1347543969,31610012,1346678042,908231020,0.00229700455284,0.0166962242971,-0.776341898787,0.630086673444,-0.0413643032723,0.243211631265,0.117547925122,-0.31392,-0.46107,10.47708
4470,1347543969,44943094,1346678042,928225040,0.00201018402587,0.0170363732781,-0.775894466492,0.630629445881,0.22357667718,0.389557489045,0.106290551446,-0.31392,-0.54936,10.41822
4471,1347543969,65015077,1346678042,948218822,0.00147128034177,0.0174018631158,-0.775226132758,0.631442359668,-0.131161493287,0.107337748998,0.0986983692003,-0.33354,-0.60822,10.40841
4472,1347543969,84542989,1346678042,968212843,0.00169744496806,0.0184947736068,-0.774867253945,0.63185109068,0.181165176357,0.0858701991981,0.0963421747101,-0.33354,-0.5886,10.47708
4473,1347543969,105139970,1346678042,988209009,0.0021206754543,0.0191958991083,-0.774185420566,0.632664172193,-0.155508836353,-0.171740398396,0.104457955732,-0.28449,-0.55917,10.52613
4474,1347543969,139075994,1346678043,8203030,0.00210910370973,0.0204369924781,-0.773764196914,0.633140465138,0.0162315620435,-0.0369137136797,0.06780604144,-0.27468,-0.55917,10.50651
4475,1347543969,175731897,1346678043,28197050,0.00360717289273,0.0213420228767,-0.773180125483,0.633817008229,0.0497418836818,-0.0274889357189,0.125663706144,-0.24525,-0.61803,10.42803
4476,1347543969,182825088,1346678043,48190832,0.00450750792544,0.0224316427932,-0.772755996837,0.634290685039,-0.306305283725,0.0442440965381,0.0790634151153,-0.23544,-0.62784,10.54575
4477,1347543969,188745021,1346678043,68184853,0.0065992707676,0.0237159358229,-0.77220770163,0.63489311664,-0.0751364242984,0.287193928416,0.139539073697,-0.24525,-0.56898,10.32993
4478,1347543969,206285953,1346678043,88178873,0.00825423206841,0.0255392561724,-0.771859457772,0.635226409633,-0.202894525544,0.371755130675,0.073042029196,-0.21582,-0.56898,10.3005
4479,1347543969,231357097,1346678043,108172894,0.0106474402292,0.026608519198,-0.771697422884,0.635343770125,0.178808981867,0.63879050623,0.113097335529,-0.22563,-0.55917,10.27107
4480,1347543969,246068954,1346678043,128168821,0.0128134890665,0.0279500851525,-0.771411667589,0.635593145294,0.0350811179651,0.474380490692,0.0418879020479,-0.28449,-0.55917,10.26126
4481,1347543969,265099048,1346678043,148162842,0.0147832392754,0.0292520423385,-0.771013891835,0.635974333172,0.123569311041,0.546113522949,0.0856083998103,-0.26487,-0.53955,10.34955
4482,1347543969,285793066,1346678043,168156862,0.0169827716127,0.0304111556906,-0.770561935901,0.636412641309,0.119642320224,0.16414821615,0.0591666616426,-0.26487,-0.4905,10.41822
4483,1347543969,316603899,1346678043,188150883,0.0185776592874,0.031624810341,-0.770330114965,0.636589550594,0.140062672473,0.252636409226,0.0636172512352,-0.27468,-0.50031,10.46727
4484,1347543969,338654041,1346678043,208144903,0.0198323664965,0.0324337445889,-0.770283655116,0.636567215706,0.0403171057211,-0.0617846555206,0.0911061869541,-0.28449,-0.48069,10.42803
4485,1347543969,375989913,1346678043,228138924,0.020019708076,0.0331617572236,-0.770136255442,0.636702173076,0.0842994028713,-0.331438024954,0.0253945406165,-0.30411,-0.48069,10.58499
4486,1347543969,382834911,1346678043,248132944,0.0192740850068,0.0333664889024,-0.769742716165,0.637190189799,-0.176190987989,-0.370184334348,0.046862090416,-0.40221,-0.43164,10.57518
4487,1347543969,388719081,1346678043,268128872,0.0176913893287,0.0338966643635,-0.769338214378,0.637696434666,-0.267035375555,-0.252374609838,0.0301069295969,-0.41202,-0.34335,10.48689
4488,1347543969,404875993,1346678043,288122892,0.0158078599352,0.0338328880871,-0.769019769348,0.638133247528,0.0497418836818,-0.315730061686,0.0780162175641,-0.34335,-0.46107,10.38879
4489,1347543969,431504964,1346678043,308116913,0.0138770455641,0.0339581770716,-0.768635776714,0.638633942546,-0.230645260651,0.0162315620435,0.0808960108299,-0.34335,-0.47088,10.40841
4490,1347543969,444703102,1346678043,328110933,0.0117223976825,0.0335417148616,-0.768501421265,0.638860786298,-0.0178023583703,0.150011049209,0.0319395253115,-0.32373,-0.47088,10.28088
4491,1347543969,464915990,1346678043,348104954,0.00952536296854,0.0326322733416,-0.76844502846,0.639012238093,-0.232477856366,0.0994837673637,0.0222529479629,-0.2943,-0.4905,10.32012
4492,1347543969,485577106,1346678043,368098974,0.00705343783295,0.0324870562374,-0.768854234267,0.638559321161,-0.12487830798,0.151320046148,-0.00628318530718,-0.24525,-0.4905,10.24164
4493,1347543969,506891965,1346678043,388092995,0.00492717213137,0.0321892913614,-0.769044967392,0.638364637668,-0.162315620435,-0.0416261026601,-0.00680678408278,-0.27468,-0.44145,10.09449
4494,1347543969,539038896,1346678043,408088923,0.002312017011,0.0319384542016,-0.769290387313,0.638096301281,-0.126710903695,-0.209439510239,-0.102101761242,-0.2943,-0.47088,9.99639
4495,1347543969,576617002,1346678043,428082943,0.000474671771806,0.0313072892399,-0.769715367071,0.637618915985,0.131946891451,-0.600829594999,-0.0225147473507,-0.34335,-0.4905,9.59418
4496,1347543969,582612037,1346678043,448076963,-0.00191315111109,0.0307920503891,-0.770080132564,0.637200736751,-0.185353966562,-0.813410697892,-0.0816814089933,-0.33354,-0.47088,9.46665
4497,1347543969,588515043,1346678043,468070984,-0.00369677884875,0.0294175897714,-0.770588037024,0.636643555244,0.273318560862,0.0298451302091,-0.00471238898038,-0.35316,-0.4905,9.49608
4498,1347543969,606365919,1346678043,488065004,-0.00624751612941,0.0277498351811,-0.771271636904,0.635870251936,-0.167551608191,0.264417381677,0.00602138591938,-0.28449,-0.43164,9.24102
4499,1347543969,631630897,1346678043,508059025,-0.00938415829896,0.0265133038845,-0.771823502297,0.635214502033,-0.318609854952,-0.274889357189,-0.0853466004225,-0.22563,-0.36297,8.86824
4500,1347543969,645637035,1346678043,528053045,-0.0108210022071,0.0244260158698,-0.772063847106,0.634983221551,0.0442440965381,-0.841685031774,-0.14032447186,-0.26487,-0.3924,9.01539
4501,1347543969,664921998,1346678043,548048973,-0.0119151576342,0.0232984076746,-0.772322925032,0.634690879632,0.22122048269,-0.22122048269,-0.0251327412287,-0.34335,-0.45126,9.1233
4502,1347543969,684875011,1346678043,568042994,-0.0141437609157,0.0219167782085,-0.772809335311,0.634101995042,0.229859862488,0.345313392507,-0.0301069295969,-0.21582,-0.40221,9.35874
4503,1347543969,705610036,1346678043,588037014,-0.0162118629914,0.0203328767246,-0.773185833537,0.633646128718,-0.115715329407,0.0942477796077,-0.0500036830696,-0.21582,-0.30411,9.29988
4504,1347543969,739064931,1346678043,608031034,-0.018441634365,0.0195233750785,-0.773925054639,0.632707478816,-0.245306026368,-0.418617221091,-0.202370926769,-0.23544,-0.38259,9.3195
4505,1347543969,775648117,1346678043,628025055,-0.0187145128845,0.0197530084326,-0.774416240828,0.632091031108,-0.0387463093943,-0.256825199431,-0.127758101246,-0.24525,-0.48069,9.55494
4506,1347543969,782752990,1346678043,648018837,-0.0206485672891,0.0199822604887,-0.775346957519,0.630881479678,0.141371669412,0.109693943488,-0.124354709205,-0.24525,-0.41202,9.10368
4507,1347543969,788595914,1346678043,668012857,-0.022555884935,0.0199001730643,-0.776173176126,0.629801886175,0.171478599008,0.358926960673,-0.00890117918517,-0.26487,-0.45126,9.53532
4508,1347543969,816566944,1346678043,688009024,-0.0248475791045,0.0197347931754,-0.776888989426,0.628837525805,-0.571508063566,-0.452912940893,-0.117547925122,-0.26487,-0.41202,9.70209
4509,1347543969,845552921,1346678043,727996826,-0.0274474713229,0.0205715050916,-0.77829024919,0.626967094442,-0.114668131856,0.00942477796077,-0.143727863902,-0.21582,-0.34335,9.3195
4510,1347543969,865871906,1346678043,747990847,-0.0295873993974,0.0206540735648,-0.779050106824,0.625922460133,0.402647458435,0.412595835171,-0.0633554518474,-0.1962,-0.53955,9.83943
4511,1347543969,885822057,1346678043,767984867,-0.0305149446935,0.0204845927119,-0.779817096608,0.624927608168,-0.107599548385,-0.111002940427,-0.00811578102177,-0.14715,-0.59841,9.81981
4512,1347543969,909872055,1346678043,787978888,-0.0319755832856,0.0205598030982,-0.780520798135,0.6239728682,-0.229859862488,-0.315468262298,-0.162315620435,-0.17658,-0.3924,9.34893
4513,1347543969,938457965,1346678043,807972908,-0.0322199353532,0.0204868802467,-0.780957820375,0.623415628853,-0.0340339204139,0.0214675497995,-0.131161493287,-0.1962,-0.31392,9.32931
4514,1347543969,977895975,1346678043,827968836,-0.0336222127865,0.021162118627,-0.781318491125,0.62286686135,0.273056761475,0.31049407393,-0.0952949771589,-0.16677,-0.45126,9.47646
4515,1347543969,982644081,1346678043,847962856,-0.0338921388217,0.0208484465019,-0.78181493199,0.62223956586,0.401076662108,0.180641577581,0.0615228561328,-0.17658,-0.59841,9.68247
4516,1347543969,991960048,1346678043,867956877,-0.0345162105226,0.0212552455853,-0.782237802315,0.621659767378,-0.399767665169,-0.338244809037,-0.0706858347058,-0.21582,-0.50031,9.45684
4517,1347543970,6104946,1346678043,887950897,-0.0345650673123,0.0218881381457,-0.78233037046,0.621518589413,-0.508938009882,-0.342695398629,-0.0740892267472,-0.21582,-0.38259,9.39798
4518,1347543970,31647920,1346678043,907944918,-0.0345790443925,0.0217655579941,-0.782333451884,0.621518238056,0.19870573534,0.348978583936,-0.073042029196,-0.17658,-0.48069,9.54513
4519,1347543970,46262025,1346678043,927938938,-0.0346634301841,0.0221412097155,-0.782214927752,0.621649435166,0.048171087355,0.153676240638,0.0620464549084,-0.12753,-0.53955,9.91791
4520,1347543970,64788103,1346678043,947932959,-0.0353223758869,0.0228470009745,-0.782357276223,0.621407625194,0.0403171057211,-0.0746128255228,-0.00314159265359,-0.17658,-0.4905,9.88848
4521,1347543970,85684061,1346678043,967928886,-0.0349370511482,0.0229337559821,-0.782464697473,0.62129094835,0.0212057504117,-0.273318560862,0.0913679863419,-0.21582,-0.52974,9.64323
4522,1347543970,104721069,1346678043,987922907,-0.0345134944893,0.0229279936885,-0.782140210265,0.621723264235,-0.307352481276,-0.244782427592,-0.0429350995991,-0.14715,-0.5886,9.72171
4523,1347543970,138746023,1346678044,7916927,-0.0335973837549,0.0223145002993,-0.781941791444,0.62204526658,0.109693943488,0.307090681888,0.0133517687778,-0.15696,-0.51993,9.67266
4524,1347543970,175812005,1346678044,27910948,-0.0342129480177,0.021822370175,-0.781898437982,0.622083668833,0.119642320224,0.29504791005,0.0589048622548,-0.10791,-0.47088,9.81
4525,1347543970,181500911,1346678044,47904968,-0.034160033891,0.0218528833161,-0.781462757834,0.622632718136,0.225671072283,0.0335103216383,0.141371669412,-0.08829,-0.53955,9.91791
4526,1347543970,189018011,1346678044,67898989,-0.0337671567295,0.0215971428771,-0.781034976557,0.623199573123,0.0329867228627,-0.304734487398,0.0992219679759,-0.13734,-0.59841,9.83943
4527,1347543970,206088066,1346678044,87893009,-0.0337686986264,0.021137583325,-0.780610677228,0.623746621764,0.23431045208,-0.247662220858,0.110741141039,-0.20601,-0.59841,9.83943
4528,1347543970,230485916,1346678044,107888937,-0.0326954721808,0.0209693545045,-0.779745060419,0.624891136937,-0.314159265359,0.0238237442897,0.153676240638,-0.13734,-0.54936,9.80019
4529,1347543970,245107889,1346678044,127882957,-0.0321144050835,0.0207514386571,-0.779205687537,0.625600942527,0.119118721449,0.305781684949,0.0979129710369,-0.05886,-0.56898,9.78057
4530,1347543970,265090942,1346678044,147876978,-0.0317781614058,0.0194382450537,-0.778581366261,0.626437035302,0.252898208614,0.315991861074,0.151320046148,-0.0981,-0.55917,9.66285
4531,1347543970,285120010,1346678044,167870998,-0.0313271915524,0.0185567971693,-0.778109420526,0.627072549261,0.195302343298,-0.134564885329,0.107599548385,-0.14715,-0.5886,9.77076
4532,1347543970,315745115,1346678044,187865019,-0.030094484222,0.0174125860709,-0.777753114493,0.627607534023,0.353167374141,-0.24504422698,0.154199839414,-0.06867,-0.62784,9.73152
4533,1347543970,337815999,1346678044,207859039,-0.0283033235485,0.0163708323241,-0.776845372988,0.628841938958,0.12252211349,-0.194255145747,0.147654854719,-0.14715,-0.64746,9.77076
4534,1347543970,378622055,1346678044,227852821,-0.0267542501925,0.0153597673978,-0.775933235613,0.630060236416,0.115977128795,-0.200538331054,0.138753675534,-0.13734,-0.66708,9.81981
4535,1347543970,385601043,1346678044,247848988,-0.0240191960935,0.0137476806765,-0.775305837574,0.630979348092,0.065188047562,0.159697626557,0.171740398396,-0.12753,-0.60822,9.88848
4536,1347543970,391777992,1346678044,267843008,-0.0219345252406,0.0123976298969,-0.774779262782,0.631729585612,0.307090681888,0.361544954551,0.0871791961371,-0.04905,-0.60822,10.01601
4537,1347543970,405014038,1346678044,287837029,-0.0192478345788,0.0108632953751,-0.774142481306,0.632625424967,0.383797902514,0.448724150688,0.111002940427,-0.01962,-0.59841,9.88848
4538,1347543970,430716037,1346678044,307832956,-0.0165982224346,0.00952919146091,-0.773665061355,0.633305665821,0.381441708023,0.186924762889,0.126710903695,-0.05886,-0.5886,9.91791
4539,1347543970,444596052,1346678044,327831030,-0.0131845149958,0.00837316003014,-0.773238826471,0.633922531539,0.383274303738,0.111526539202,0.108123147161,-0.04905,-0.6867,9.74133
4540,1347543970,464966058,1346678044,347826958,-0.00992554760205,0.00754353124104,-0.772584913054,0.634789044299,0.23431045208,-0.14398966329,0.105766952671,-0.12753,-0.61803,9.62361
4541,1347543970,484808921,1346678044,367822886,-0.00723185070067,0.00727087922809,-0.771867692463,0.635700479772,0.056025068989,-0.169122404518,0.0842994028713,-0.16677,-0.46107,9.73152
4542,1347543970,504571914,1346678044,387820959,-0.00513806050331,0.0071872441469,-0.771313437194,0.636394158883,0.215722695546,0.265726378616,0.136659280431,-0.07848,-0.46107,9.59418
4543,1347543970,537719964,1346678044,407816887,-0.00284229116729,0.00727404466586,-0.770756245275,0.637082271002,0.0814196096055,0.583289036017,0.140848070636,-0.10791,-0.45126,9.6138
4544,1347543970,575604915,1346678044,427814960,-0.00124697977944,0.0071220377147,-0.770590011924,0.637290165578,0.0848230016469,0.161530222272,0.0191113553093,-0.10791,-0.52974,9.63342
4545,1347543970,581530094,1346678044,447810888,0.000985960097617,0.00715856917465,-0.770420914239,0.637494625603,0.142418866963,0.218078890037,0.0204203522483,-0.20601,-0.55917,9.43722
4546,1347543970,588489055,1346678044,467808962,0.00267465293435,0.00799106590872,-0.770298680088,0.637627581393,0.0319395253115,-0.374111325165,-0.0138753675534,-0.0981,-0.46107,9.50589
4547,1347543970,604784011,1346678044,487804890,0.0040602250927,0.00823259870827,-0.77023819249,0.637690258449,-0.0287979326579,-0.426471202725,-0.0371755130675,-0.13734,-0.50031,9.46665
4548,1347543970,630698919,1346678044,507802963,0.00622996387527,0.0088959080585,-0.770226032843,0.637678530845,0.232739655753,0.355785368019,0.0937241808321,-0.11772,-0.50031,9.63342
4549,1347543970,645515918,1346678044,527798891,0.00707042291617,0.00993281647987,-0.770154186149,0.637741231091,-0.113882733693,0.473333293141,0.0238237442897,-0.13734,-0.43164,9.65304
4550,1347543970,664944887,1346678044,547796965,0.00750837600685,0.0106352725733,-0.770142490606,0.637739021411,-0.0945095789955,0.539044939478,0.0109955742876,-0.16677,-0.48069,9.65304
4551,1347543970,684853076,1346678044,567792892,0.00882848982048,0.0115032721576,-0.77006929201,0.637795435858,-0.203679923708,0.173834793499,-0.0170169602069,-0.11772,-0.42183,9.44703
4552,1347543970,705615043,1346678044,587790966,0.0109500522362,0.0135941132979,-0.770190897694,0.637574527054,-0.165980811865,-0.240593637387,-0.135350283492,-0.14715,-0.47088,9.45684
4553,1347543970,737809896,1346678044,607786894,0.0138564139415,0.0154215530157,-0.770418931543,0.637200788932,-0.0518362787842,-0.0217293491873,-0.057334065928,-0.18639,-0.46107,9.29007
4554,1347543970,775484085,1346678044,627782822,0.015918886252,0.0181322684655,-0.770619776691,0.636838260215,0.138491876146,0.621511746635,-0.0455530934771,-0.23544,-0.43164,9.29007
4555,1347543970,781735897,1346678044,647780895,0.0180583235955,0.0202057092165,-0.771160308212,0.636063994659,-0.0617846555206,0.721519112774,-0.0201585528605,-0.1962,-0.4905,9.58437
4556,1347543970,788685083,1346678044,667776823,0.0205303961025,0.0224256019004,-0.7717960213,0.635142894726,-0.193731546971,0.294524311274,-0.0455530934771,-0.24525,-0.43164,9.40779
4557,1347543970,815859079,1346678044,687774897,0.02215566175,0.0248507979903,-0.772308414823,0.634374713308,-0.409716041906,-0.132994089002,-0.152105444311,-0.28449,-0.36297,9.57456
4558,1347543970,831459999,1346678044,707770824,0.0238505724602,0.0273298845481,-0.772752302327,0.633670345567,-0.124354709205,0.38903389027,-0.129328897573,-0.26487,-0.40221,9.81
4559,1347543970,844388008,1346678044,727768898,0.024580031503,0.0300264807317,-0.77318281524,0.632994918403,0.0185877565337,0.370446133736,-0.0840376034835,-0.28449,-0.40221,9.52551
4560,1347543970,864917039,1346678044,747764826,0.0254385964984,0.032021568418,-0.773800004112,0.632108416809,0.386415896392,0.512079602535,-0.0780162175641,-0.28449,-0.46107,9.6138
4561,1347543970,884468078,1346678044,767762899,0.0261908373506,0.0340178551277,-0.774630630848,0.630954999444,-0.0688532389912,0.0157079632679,-0.0274889357189,-0.32373,-0.44145,9.44703
4562,1347543970,904606103,1346678044,787758827,0.0273046447041,0.035163088946,-0.775659809387,0.629579124221,-0.214937297383,-0.104457955732,-0.160744824109,-0.2943,-0.47088,9.49608
4563,1347543970,937762022,1346678044,807756901,0.0288458491443,0.0359073829153,-0.77620889155,0.628791168448,0.0753982236862,0.0945095789955,-0.140848070636,-0.30411,-0.35316,9.29988
4564,1347543970,975598096,1346678044,827752829,0.0287257521474,0.0362080858812,-0.776741134158,0.628121816359,0.057334065928,0.308661478215,-0.135873882268,-0.30411,-0.37278,9.54513
4565,1347543970,981698989,1346678044,847750902,0.0285149511182,0.03578382643,-0.777094179273,0.627718927442,0.38903389027,0.00680678408278,-0.0157079632679,-0.33354,-0.44145,9.70209
4566,1347543970,988801002,1346678044,867746830,0.0280253449205,0.0354368359212,-0.77782762733,0.626851651401,0.113882733693,-0.343218997405,-0.0968657734857,-0.30411,-0.46107,9.89829
4567,1347543971,6287097,1346678044,887742996,0.0279289143807,0.0341823374061,-0.778548916743,0.626029654082,-0.0984365698125,-0.312588469032,-0.132470490226,-0.35316,-0.44145,9.7119
4568,1347543971,31547069,1346678044,907740831,0.0274188834796,0.0321796852864,-0.778980762567,0.625621006867,-0.00863937979737,-0.191898951257,-0.173834793499,-0.37278,-0.41202,9.72171
4569,1347543971,44641971,1346678044,927736998,0.0260054062138,0.0299063844329,-0.779372114722,0.625306671811,0.441655567217,0.128543499409,-0.0772308194007,-0.37278,-0.46107,9.93753
4570,1347543971,65006017,1346678044,947734833,0.0237402176715,0.0278554123937,-0.779643465901,0.625153216534,0.150272848597,-0.405265452313,0.00602138591938,-0.35316,-0.42183,9.87867
4571,1347543971,84894895,1346678044,967730999,0.0213990574927,0.0250642928705,-0.780099188342,0.62478725812,0.340077404751,-0.599258798672,-0.0246091424531,-0.3924,-0.47088,9.9081
4572,1347543971,104501008,1346678044,987728834,0.0189866415042,0.0222206857269,-0.780543511501,0.624417789003,-0.351334778426,-0.712094334814,-0.06780604144,-0.42183,-0.44145,9.62361
4573,1347543971,137990951,1346678045,7725000,0.0161130417465,0.0198088289577,-0.78069124484,0.624395035544,0.0793252145031,0.0706858347058,-0.0591666616426,-0.2943,-0.45126,9.9081
4574,1347543971,175553083,1346678045,27722836,0.0131129581863,0.0162959498529,-0.780747003257,0.624497085062,0.0903207887907,-0.0654498469498,0.0442440965381,-0.26487,-0.44145,9.7119
4575,1347543971,181741952,1346678045,47719002,0.00993864317727,0.0139794149371,-0.780866801729,0.624462038307,0.113359134917,-0.56627207581,-0.056025068989,-0.31392,-0.44145,9.69228
4576,1347543971,188843011,1346678045,67716837,0.00761825114269,0.0126875769625,-0.780736575407,0.624685030605,-0.0816814089933,-0.577529449485,0.0557632696012,-0.28449,-0.37278,9.69228
4577,1347543971,205121994,1346678045,87713003,0.00549025731985,0.0114349171009,-0.780655590632,0.624832736467,-0.306305283725,-0.425162205786,-0.0319395253115,-0.26487,-0.35316,9.62361
4578,1347543971,230344057,1346678045,107710838,0.004044503893,0.00905062600266,-0.780585255126,0.624970709424,0.198182136564,0.184306769011,-0.00628318530718,-0.30411,-0.48069,9.53532
4579,1347543971,244600057,1346678045,127707005,0.00199920180302,0.00797368366997,-0.780492796253,0.625110725038,-0.125140107368,0.0497418836818,-0.00785398163397,-0.1962,-0.42183,9.83943
4580,1347543971,264925003,1346678045,147702932,0.000579934011854,0.00695105157169,-0.780287094549,0.625382600205,0.248447619021,-0.390342887209,0.0772308194007,-0.21582,-0.36297,9.81981
4581,1347543971,284524917,1346678045,167701006,-0.000375563492421,0.00618691319172,-0.780076608286,0.625653311557,-0.0955567765467,-0.418355421703,0.0102101761242,-0.25506,-0.44145,9.81
4582,1347543971,315833091,1346678045,187696934,-0.000948346954345,0.00606347727292,-0.780023458721,0.625720176058,-0.13561208288,-0.257872396982,0.00445058959259,-0.24525,-0.46107,9.81
