%DLR Intertial Motion Unit recording log.  Contain the  information of the IMU .
Angular Velocity Covariance,0.000436332312999,0.0,0.0,0.0,0.000436332312999,0.0,0.0,0.0,0.000436332312999
Acceleration Covariance,0.0004,0.0,0.0,0.0,0.0004,0.0,0.0,0.0,0.0004
MessageSequence,SystemTimeSecs,SystemTimenSecs,TimeStampSecs,TimeStampnSecs,ROT_X,ROT_Y,ROT_Z,ROT_W,ROTVEL_X,ROTVEL_Y,ROTVEL_Z,ACC_X,ACC_Y,ACC_Z
1,1348765041,169118881,1348765041,168762922,0.391263423682,0.920252333544,0.00675874704237,0.00170153842382,-0.0473258569837,-0.023522073403,0.00549509096891,0.0328463204205,0.0784088149667,-9.84681987762
2,1348765041,180382966,1348765041,179975032,0.391323357681,0.92022577782,0.00686983020149,0.00183112025082,-0.035727057606,-0.0153984827921,0.0127988327295,0.0156928729266,0.0857922881842,-9.86492824554
3,1348765041,189102888,1348765041,188764095,0.39138554596,0.920198156493,0.00698828436077,0.00196750660995,-0.0374826565385,-0.0162650030106,0.0136628709733,0.0328535251319,0.085649497807,-9.83957195282
4,1348765041,200229883,1348765041,199907064,0.391386817445,0.920196251977,0.00713752178191,0.00206706594065,-0.0402371250093,-0.00676840916276,0.000357084791176,0.0254348758608,0.090648137033,-9.8595123291
5,1348765041,209135055,1348765041,208811998,0.391432268229,0.920175100234,0.00734701821387,0.00214140658298,-0.049395956099,0.00230257608928,0.0101765245199,0.0230778045952,0.0711780190468,-9.85951805115
6,1348765041,220262050,1348765041,219856023,0.391479629876,0.920152538162,0.00761419079726,0.00224276728814,-0.0614738278091,0.00143118260894,0.0109796840698,0.0133140478283,0.0808614566922,-9.85773849487
7,1348765041,229032993,1348765041,228733062,0.391488765235,0.920147437026,0.00773938784655,0.00231142938692,-0.033466681838,-0.00318893161602,0.00222353823483,0.0133695220575,0.07593780756,-9.85040283203
8,1348765041,240207910,1348765041,239864110,0.391501728878,0.920140674222,0.00786741364203,0.00237481150991,-0.0335687883198,-0.00314544979483,0.00399759225547,0.0327715836465,0.0761110931635,-9.86383724213
9,1348765041,249190092,1348765041,248805046,0.3915019892,0.920138717082,0.00804296949142,0.00249888412114,-0.0470987521112,-0.00943212024868,0.000283807952655,0.0181512832642,0.0857608616352,-9.85991477966
10,1348765041,260279893,1348765041,259948968,0.391573829362,0.92010660185,0.00820121041958,0.00255294709634,-0.041055239737,0.00238753389567,0.014707009308,0.013234462589,0.0858237221837,-9.86994075775
11,1348765041,269146919,1348765041,268857002,0.391631922803,0.920080396424,0.00833462701289,0.00265238568801,-0.037468649447,-0.00830113794655,0.0128526631743,0.013355018571,0.0856306627393,-9.84560585022
12,1348765041,280316114,1348765041,279922962,0.391616090722,0.92008542346,0.00846503738495,0.00282739574912,-0.0441796816885,-0.0201921537519,-0.00514138210565,0.013355018571,0.0856306627393,-9.84560585022
13,1348765041,289143085,1348765041,288811922,0.391558587418,0.920107626595,0.0086928519904,0.00287444346285,-0.0507849231362,0.00895508471876,-0.0120594762266,0.0133502148092,0.0808035433292,-9.85043716431
14,1348765041,300138950,1348765041,299810886,0.391557988482,0.920105814938,0.00890057743515,0.0029001196802,-0.0488362498581,0.00918895099312,-0.000459489354398,0.0231332797557,0.0662543699145,-9.85218334198
15,1348765041,309099912,1348765041,308778047,0.391624094712,0.920075916718,0.00906644008738,0.00294543397326,-0.0393297709525,0.00416653230786,0.0147206848487,0.0328945890069,0.0662444829941,-9.84673309326
16,1348765041,319091081,1348765041,318773031,0.391673356968,0.920053219536,0.0092151725646,0.00302245886631,-0.0481376424432,0.000388490763726,0.00302867102437,0.0328367128968,0.068754568696,-9.85648441315
17,1348765041,328203916,1348765041,327872037,0.391681998374,0.920047673687,0.00938121816157,0.00307945411396,-0.0403606258333,0.00214219884947,0.00221509649418,0.032884888351,0.0807644575834,-9.83710384369
18,1348765041,339071989,1348765041,338778018,0.39170846283,0.920035241214,0.00947135871278,0.00315094205871,-0.0284876655787,-0.0075536952354,0.00578491017222,0.0231115240604,0.0807936489582,-9.84498691559
19,1348765041,348280906,1348765041,347883939,0.391766393413,0.920008657865,0.00962625091009,0.00324002143617,-0.0409201085567,-0.00474618794397,0.0128515958786,0.0230826083571,0.0760051384568,-9.85468673706
20,1348765041,359124898,1348765041,358757019,0.391774065074,0.920004312818,0.00972519571618,0.00325067693209,-0.0283330976963,0.000362720078556,0.00229574483819,0.018141631037,0.0881937220693,-9.85993289948
21,1348765041,368160963,1348765041,367739915,0.391782525897,0.919998624661,0.00990878316472,0.00328618927428,-0.0421028323472,0.00746348965913,0.0022564495448,0.0182525776327,0.0783464238048,-9.84526157379
22,1348765041,381206035,1348765041,380865097,0.391873531746,0.919958900803,0.0099750545023,0.00335473380777,-0.0358259603381,-0.00914728455245,0.0138052133843,0.0132756531239,0.0783880501986,-9.8551158905
23,1348765041,388219118,1348765041,387897014,0.391890845306,0.919949764042,0.0101343875267,0.00336023719122,-0.0353792645037,0.0110701341182,0.00418814504519,0.0132153294981,0.0905717164278,-9.8576374054
24,1348765041,399137020,1348765041,398813009,0.391979047375,0.91991030039,0.010277042966,0.00344209878006,-0.042871389538,-0.00287781329826,0.0164828971028,0.0230273231864,0.0808110386133,-9.8496837616
25,1348765041,408101081,1348765041,407773971,0.392020778011,0.919890378422,0.0104305466528,0.00355035084625,-0.0424604229629,-0.00834745727479,0.00930663477629,0.0157171618193,0.0856359302998,-9.84772205353
26,1348765041,420250892,1348765041,419869899,0.392012727498,0.919892222578,0.0105447411468,0.00362336215852,-0.04346678406,-0.0139181278646,-0.00324727757834,0.0231093559414,0.0661751925945,-9.84471130371
27,1348765041,428272962,1348765041,427875041,0.392053901758,0.919871990406,0.0107573428212,0.00367953233829,-0.0493906885386,0.00585643621162,0.00937877967954,0.023046631366,0.0759452953935,-9.84964847565
28,1348765041,439066886,1348765041,438806056,0.392060969071,0.919866902269,0.0108834501641,0.00382480753809,-0.0509537011385,-0.00603752350435,-0.00856807362288,0.0156520344317,0.0929924622178,-9.85507488251
29,1348765041,448044061,1348765041,447801113,0.392136028821,0.919833324663,0.0109863639023,0.00391018532339,-0.0316778346896,-0.00820489320904,0.0165164247155,0.0230393782258,0.0807917267084,-9.84724998474
30,1348765041,459074974,1348765041,458762884,0.392137330301,0.919830586867,0.0111820443079,0.00386878970432,-0.0406146533787,0.00844523031265,0.00590184796602,0.0181659683585,0.0759502351284,-9.85237312317
31,1348765041,468735933,1348765041,467780113,0.392129522844,0.91983146891,0.0113644201818,0.00391868223858,-0.0436480715871,0.00475595006719,-0.00128998560831,0.0254616271704,0.0808182135224,-9.84953784943
32,1348765041,479111909,1348765041,478785991,0.392229240078,0.919787150199,0.011492533448,0.00396777414333,-0.0520065613091,0.0023304396309,0.0102131403983,0.0375945717096,0.0784984752536,-9.85852527618
33,1348765041,488193988,1348765041,487862110,0.392208700865,0.919792575407,0.0117031576923,0.00412180682926,-0.0571822635829,-0.0121587682515,-0.00421835901216,0.0181298013777,0.076008155942,-9.85967445374
34,1348765041,499109029,1348765041,498802900,0.392340844308,0.919735129384,0.011753832961,0.00421913205622,-0.0477314181626,-0.00475687673315,0.0110797118396,0.02540615201,0.0857418775558,-9.85687351227
35,1348765041,507997989,1348765041,507793903,0.392349067898,0.919728404894,0.0119532782007,0.00435767026971,-0.0540914237499,-0.0102615440264,0.00206643715501,0.0181707721204,0.0807773694396,-9.84754180908
36,1348765041,519150972,1348765041,518800973,0.392487577917,0.919668924633,0.0119598240466,0.00441959888964,-0.0476151965559,-0.00834548287094,0.00926583632827,0.018158717081,0.0807966738939,-9.84997463226
37,1348765041,528191089,1348765041,527918100,0.392512284839,0.919655307099,0.0121576556886,0.00451816157952,-0.0508784800768,-0.0030863515567,0.00571631640196,0.0327765904367,0.0808204561472,-9.84666633606
38,1348765041,539144992,1348765041,538847923,0.392623959421,0.919608116344,0.0121567579319,0.00442177337481,-0.0358189791441,0.00237789703533,0.0130077814683,0.0328272618353,0.0710696578026,-9.84416294098
39,1348765041,548196077,1348765041,547818899,0.392607886783,0.919612341732,0.0123474681086,0.00444164406399,-0.0435797460377,0.0109320245683,-0.00301188067533,0.0229887086898,0.0905425176024,-9.84975337982
40,1348765041,559283971,1348765041,558784961,0.392761782768,0.919546827212,0.0123380834555,0.00442563639198,-0.0379066206515,-0.00458222534508,0.0200725980103,0.022983904928,0.0857153907418,-9.85458564758
41,1348765041,568222045,1348765041,567858934,0.392794876688,0.919529691128,0.0125231270665,0.00452805369384,-0.0492590740323,-0.00483023608103,0.0075057419017,0.0131743587554,0.0858025029302,-9.86977005005
42,1348765041,579049110,1348765041,578757047,0.392852077201,0.919503514803,0.0126720474521,0.00446664499798,-0.0493948049843,0.00585716636851,0.00938033312559,0.0229911562055,0.0808689519763,-9.85698413849
43,1348765041,588246107,1348765041,587882041,0.392930562188,0.919467487371,0.0128319266524,0.0045226789378,-0.0412194132805,0.00158052670304,0.0174196250737,0.0278815180063,0.0663440078497,-9.86388778687
44,1348765041,599111080,1348765041,598783969,0.393020204439,0.919429112265,0.0128429702307,0.00450383581831,-0.0311489850283,0.00578520214185,0.00594067154452,0.0328079536557,0.0759354010224,-9.84419822693
45,1348765041,608160018,1348765041,607836961,0.393054071755,0.919412679553,0.012968792957,0.00454222002704,-0.0338079668581,0.00226957350969,0.00767296319827,0.0279586557299,0.0710553005338,-9.84445476532
46,1348765041,619064092,1348765041,618763923,0.393126724595,0.919382023477,0.0129894478404,0.00439858630999,-0.0372537970543,0.00226399488747,0.00766338733956,0.00838289037347,0.0904994383454,-9.85062789917
47,1348765041,628122091,1348765041,627881050,0.393140429896,0.919374346384,0.0130738838477,0.00452627368575,-0.0334852561355,-0.01734255068,0.00303647806868,0.0328079536557,0.0759354010224,-9.84419822693
48,1348765041,639107942,1348765041,638803005,0.393178394555,0.919356809389,0.0131730793626,0.00450300619225,-0.0513780042529,0.00386971537955,-0.00135486328509,0.0254616271704,0.0808182135224,-9.84953784943
49,1348765041,648030042,1348765041,647777080,0.393252934694,0.91932243656,0.0133203061642,0.00457781991601,-0.0411519482732,-0.00287515460514,0.0164912454784,0.0327765904367,0.0808204561472,-9.84666633606
50,1348765041,659110069,1348765041,658776044,0.393329872994,0.919288544577,0.0133844474375,0.00458687105319,-0.0391181372106,-0.00830873381346,0.0111079365015,0.0279200412333,0.0807867869735,-9.84452438354
51,1348765041,668220996,1348765041,667895078,0.393440887665,0.919238422033,0.013555804365,0.00460776935254,-0.0416413471103,0.00882073398679,0.0246220380068,0.0229839496315,0.0736282542348,-9.86423206329
52,1348765041,679099082,1348765041,678776025,0.393575041065,0.9191824515,0.0134638255287,0.00458620834103,-0.0339522771537,-0.0100851822644,0.0111262109131,0.0230731889606,0.0662331134081,-9.8520116806
53,1348765041,688290119,1348765041,687859058,0.39365390831,0.919146328317,0.0135938292769,0.00467283850173,-0.0394690074027,-0.00640926323831,0.0173652339727,0.0254471693188,0.0784239545465,-9.85438728333
54,1348765041,699119091,1348765041,698788881,0.393735298759,0.919111950889,0.013594525254,0.00457439903004,-0.0312377288938,0.00227105757222,0.00769579363987,0.0327355749905,0.088138371706,-9.849152565
55,1348765041,708013057,1348765041,707741022,0.393777342963,0.919091709942,0.0137131015506,0.00466730454879,-0.0381688699126,-0.00834636297077,0.0093385707587,0.0180839356035,0.0905860736966,-9.85734558105
56,1348765041,719191074,1348765041,718791961,0.393844903147,0.91906047837,0.0138709872087,0.00465027703792,-0.0519794337451,0.00762851815671,0.00938394851983,0.0132708037272,0.0856480523944,-9.85030174255
57,1348765041,728138923,1348765041,727828025,0.393927219403,0.919022130351,0.0140413653233,0.00474444918649,-0.0481120496988,-0.00461549079046,0.0182056315243,0.025519547984,0.0662209913135,-9.84943294525
58,1348765041,739135980,1348765041,738840103,0.394027259756,0.918979559453,0.0140307247722,0.00471451365483,-0.0473964959383,-0.0128457266837,0.00564275076613,0.0425596684217,0.0662712529302,-9.84841156006
59,1348765041,748342990,1348765041,747982978,0.394060874379,0.918962886189,0.0141683006769,0.00474345313396,-0.0372578278184,0.00493416702375,0.00767161510885,0.0328079536557,0.0759354010224,-9.84419822693
60,1348765041,759203910,1348765041,758822917,0.394081150322,0.918954116836,0.0142340505936,0.00455740216542,-0.0320417620242,0.000474217056762,0.00678717344999,0.0181152988225,0.0857010260224,-9.85487747192
61,1348765041,768086910,1348765041,767791986,0.394098472393,0.918944512223,0.014353007274,0.00462262867097,-0.0370381437242,-0.00312602100894,0.00403980957344,0.0229597929865,0.0857539996505,-9.85945224762
62,1348765041,779021024,1348765041,778774976,0.394191606759,0.918904465175,0.0143701461177,0.00458911124855,-0.0517289079726,-0.00663975020871,0.00568555109203,0.0180911868811,0.0857396423817,-9.85974407196
63,1348765041,788125991,1348765041,787841081,0.394134857178,0.918926244445,0.0145168312221,0.00464039220112,-0.0413342230022,0.00188326020725,-0.0120051736012,0.0327500775456,0.0784455016255,-9.85394954681
64,1348765041,799052953,1348765041,798805952,0.394202882692,0.918898276852,0.0144682182838,0.00455134423859,-0.0376146920025,0.000318277976476,-0.00128738116473,0.0278959292918,0.0808253958821,-9.84939193726
65,1348765041,808325052,1348765041,807921886,0.394261004911,0.918871228498,0.0145931115002,0.00457892368293,-0.035831220448,0.00415389006957,0.0130254458636,0.0327597297728,0.0760126262903,-9.85393238068
66,1348765041,819197893,1348765041,818814039,0.394333132702,0.918839643837,0.0146250290386,0.00460411694449,-0.0414771698415,-0.013705204241,0.00747249741107,0.023065937683,0.0710795521736,-9.8496131897
67,1348765041,828263044,1348765041,827899932,0.39433096265,0.918839647765,0.0146639314118,0.00466505158534,-0.0230136029422,-0.00853955280036,-0.000376981915906,0.0328224562109,0.066242530942,-9.84899520874
68,1348765041,839047908,1348765041,838761091,0.394404231436,0.918806801208,0.0147485887468,0.00467369320421,-0.0475287996233,-0.00482603348792,0.00750493258238,0.0328031480312,0.0711082741618,-9.84903049469
69,1348765041,848059892,1348765041,847834110,0.394461909623,0.918779239242,0.0149058910504,0.00472501919357,-0.044413972646,0.00237483950332,0.0129546774551,0.0230803489685,0.0855609402061,-9.83511734009
70,1348765041,859137058,1348765041,858798980,0.394546879893,0.918742953874,0.0149260515578,0.00462139143667,-0.0490835309029,0.0022008032538,0.00399570493028,0.0254809334874,0.0759524703026,-9.84950256348
71,1348765041,868067979,1348765041,867775917,0.39453963754,0.918743849731,0.0150375432832,0.00469949812118,-0.0384502224624,-0.00589923933148,-0.00134108716156,0.0132732056081,0.0880616232753,-9.84788513184
72,1348765041,879075050,1348765041,878781080,0.394624920665,0.91870771513,0.0150156815284,0.0046728427374,-0.0335400402546,0.00215660757385,0.0031629956793,0.0230801608413,0.0856786891818,-9.84745597839
73,1348765041,900247097,1348765041,899904966,0.39469850257,0.918673185741,0.0151848573433,0.00469999752366,-0.0454629398882,0.00775385927409,0.0164962802082,0.03525891155,0.0808681696653,-9.84912490845
74,1348765041,900382041,1348765041,900202989,0.394754723968,0.918649262409,0.0151899341208,0.00463750817092,-0.0309575460851,0.0012698196806,0.00317088677548,0.0255217123777,0.0808394402266,-9.84970855713
75,1348765041,908350944,1348765041,908071994,0.394836467617,0.918610731684,0.0153646305502,0.00473451183222,-0.0523810237646,-0.00463901693001,0.0181203782558,0.0231211781502,0.0783607810736,-9.84496974945
76,1348765041,918987989,1348765041,918787002,0.39490543062,0.918579991889,0.0154075640475,0.00480690525288,-0.0471955351532,-0.00850446894765,0.00206510117278,0.03280775249,0.0760531723499,-9.85653686523
77,1348765041,928040981,1348765041,927799940,0.394937920719,0.918563184795,0.0155732776217,0.00481532372018,-0.0441276803613,0.0111202364787,0.00762492977083,0.0182622317225,0.0759135559201,-9.84524440765
78,1348765041,939255952,1348765041,938925981,0.395173245661,0.918460765416,0.0156364650528,0.00484037876337,-0.0456781797111,0.00813132245094,0.0361378341913,-0.00127008603886,0.090453311801,-9.84651565552
79,1348765041,948098897,1348765041,947763919,0.395246406661,0.918425327899,0.0158325905036,0.0049521887094,-0.058298766613,-0.00555858714506,0.0162824839354,0.0254927966744,0.0760509371758,-9.85940742493
80,1348765041,959187030,1348765041,958789110,0.395253511494,0.918422060403,0.0158689531309,0.00487410957142,-0.0347346737981,0.00373773905449,-0.00663957512006,0.0230126306415,0.090621650219,-9.85722446442
81,1348765041,968125104,1348765041,967766046,0.395302147085,0.918397848598,0.0160449134015,0.00491578625519,-0.0494630634785,0.0058663780801,0.011110343039,0.0133067965508,0.0857078880072,-9.85534000397
82,1348765041,978956937,1348765041,978724002,0.395452438085,0.918336162812,0.01589631157,0.00483410423044,-0.0380316972733,-0.0101751089096,0.0074697942473,0.0278909299523,0.0761160328984,-9.86656188965
83,1348765041,988219022,1348765041,987910985,0.395525775901,0.918301471238,0.0160623307563,0.00487545385013,-0.0480314046144,0.00509151490405,0.016454000026,0.0328004993498,0.0808995962143,-9.85413837433
84,1348765041,999145030,1348765041,998812913,0.395615551676,0.918262132405,0.0161064574438,0.00485525413884,-0.0323869548738,-0.00295718340203,0.0138301420957,0.0181801989675,0.090549364686,-9.85021591187
85,1348765042,8228063,1348765042,7813930,0.395680401748,0.918230351504,0.0163003849344,0.00493342678223,-0.0565086714923,0.000616947887465,0.0145724257454,0.0255024060607,0.0857051759958,-9.84974384308
86,1348765042,19181013,1348765042,18796920,0.395722345993,0.918210394504,0.016391716349,0.00498075705128,-0.0504372902215,-0.0085795307532,-0.00151825672947,0.0230922158808,0.0856593847275,-9.84502220154
87,1348765042,28059959,1348765042,27745008,0.395747030816,0.918197227675,0.0165173441331,0.00503150398071,-0.0422677136958,0.000435504072811,0.00575696630403,0.0231356360018,0.0807550400496,-9.84012031555
88,1348765042,39041996,1348765042,38753032,0.395813625519,0.918168243623,0.0165655411745,0.00492271286433,-0.0337683819234,0.0093264747411,0.00679704081267,0.015716984868,0.0857536792755,-9.86006069183
89,1348765042,48106908,1348765042,47822952,0.395825637397,0.918160250551,0.0167038897381,0.00497987504385,-0.0455588549376,0.000379044591682,0.00306320283562,0.0134032405913,0.0855534374714,-9.83587169647
90,1348765042,59201955,1348765042,58907032,0.395916745882,0.918120856991,0.0167232104546,0.00493523254964,-0.044767819345,0.00395083799958,0.00399062177166,0.0230729095638,0.0905251204967,-9.84505748749
91,1348765042,68056106,1348765042,67776918,0.395946174218,0.918106372701,0.0167958123869,0.00502157478785,-0.0362564027309,-0.0101970890537,0.00659277569503,0.0231404844671,0.0734950527549,-9.8449344635
92,1348765042,79066991,1348765042,78779935,0.396008891836,0.918077789951,0.0168613168876,0.00508184784564,-0.0370980463922,-0.00489408429712,0.00575419142842,0.00354068307206,0.0808906555176,-9.86562156677
93,1348765042,88258028,1348765042,87862014,0.396082706505,0.918043645539,0.0169665825327,0.00514680203311,-0.0411161482334,-0.00378763186745,0.0164234265685,0.0231115706265,0.0687065422535,-9.85463428497
94,1348765042,99097013,1348765042,98784923,0.396246454325,0.917974569232,0.0168715971595,0.00517560492484,-0.0391730889678,-0.0118480883539,0.0128025216982,0.0182043556124,0.0784236490726,-9.85499572754
95,1348765042,108083963,1348765042,107825040,0.396262430222,0.917965211728,0.0169964441276,0.00520358904337,-0.0421967916191,0.00483606848866,0.0040207230486,0.0132850874215,0.0881600603461,-9.85779094696
96,1348765042,119132995,1348765042,118789911,0.396232771249,0.917974115814,0.0171793004784,0.00529011512306,-0.0417633913457,-0.0050696907565,-0.00319986231625,0.0133357113227,0.090496391058,-9.8456401825
97,1348765042,128076076,1348765042,127785921,0.396290725017,0.917947601451,0.017234790529,0.00536882214903,-0.0340257436037,-0.0100761661306,0.0128615591675,0.0133309075609,0.0856692716479,-9.85047245026
98,1348765042,139204025,1348765042,138839960,0.396408858808,0.917894980765,0.0173165533002,0.0053812569772,-0.044485848397,0.00238897255622,0.0146771855652,0.0206290017813,0.0808636918664,-9.85486698151
99,1348765042,148272037,1348765042,147831916,0.396376001325,0.917907111814,0.0174122019129,0.00542354870209,-0.0390096344054,0.000188914098544,-0.00670977355912,0.0255289636552,0.0759930163622,-9.85210704803
100,1348765042,160324096,1348765042,159854888,0.396493110874,0.917857689016,0.0173700132448,0.00536268434827,-0.0354972369969,0.000471983628813,0.00759003777057,0.0230391900986,0.0809094905853,-9.85958862305
101,1348765042,168226957,1348765042,167819023,0.396534790993,0.917837895724,0.0174218034846,0.00549886068912,-0.0389396324754,-0.0207878556103,0.00914565846324,0.0377004630864,0.0760289207101,-9.85137844086
102,1348765042,179034948,1348765042,178780078,0.396516338599,0.9178434541,0.0175545223396,0.00547957438404,-0.0383024215698,0.00201536063105,-0.00401026615873,0.0231211781502,0.0783607810736,-9.84496974945
103,1348765042,188204050,1348765042,187838077,0.396511957559,0.917843039193,0.0176524966916,0.00555088078697,-0.0427668839693,-0.00500925956294,-0.000543771893717,0.0328246094286,0.0808609873056,-9.84927082062
104,1348765042,199100971,1348765042,198776960,0.396588891096,0.917807138069,0.0177942241729,0.00553844338763,-0.0443993955851,0.0059108263813,0.012913021259,0.0425763130188,0.0711968541145,-9.85348510742
105,1348765042,208074092,1348765042,207781076,0.396565146168,0.917816374092,0.0178190801777,0.00562749271647,-0.0313149727881,-0.0139766335487,-0.00499845808372,0.0279680676758,0.0808273181319,-9.8471288681
106,1348765042,219208002,1348765042,218812942,0.396584642644,0.917808079167,0.0178354100831,0.00555420392923,-0.0432836785913,-0.00425100885332,-0.00678008468822,0.0182815399021,0.0710478201509,-9.8452091217
107,1348765042,228152036,1348765042,227807044,0.39668699198,0.917762008463,0.0178997804578,0.00565013945559,-0.0396989285946,-0.0125426826999,0.0225999951363,0.0134201925248,0.0661870315671,-9.84789943695
108,1348765042,239121913,1348765042,238806962,0.396747115958,0.917734845086,0.0179710269988,0.00561447081898,-0.0304470527917,0.00405408069491,0.00944239087403,0.0182574279606,0.0710864365101,-9.85007572174
109,1348765042,248449087,1348765042,247845888,0.396787574935,0.917715368718,0.0180524066391,0.00567741228335,-0.0407254993916,-0.00482154497877,0.00929339788854,0.013355018571,0.0856306627393,-9.84560585022
110,1348765042,259150028,1348765042,258797883,0.396877672097,0.917675058505,0.0181150873379,0.00569596342298,-0.031655754894,-0.00645396625623,0.0164753198624,0.018218813464,0.080817900598,-9.85014629364
111,1348765042,268074989,1348765042,267782926,0.396851781605,0.917683582624,0.0182386873093,0.00573200709924,-0.046852812171,0.00377785391174,-0.00495593808591,0.0328632257879,0.0711295232177,-9.84920120239
112,1348765042,279059886,1348765042,278776884,0.396987942677,0.917624131153,0.0182465726346,0.00579567787509,-0.0426375083625,-0.00563450995833,0.0128337945789,0.0181802455336,0.0784622579813,-9.85986232758
113,1348765042,288336992,1348765042,287810087,0.396995020538,0.917618767769,0.0183505236989,0.00583172242022,-0.0438018925488,0.00213767681271,0.00219817529432,0.0133502148092,0.0808035433292,-9.85043716431
114,1348765042,299278974,1348765042,298831939,0.397106772866,0.917567754974,0.0185056252097,0.00575915033697,-0.0450349599123,0.00524434540421,0.024514971301,0.0157458987087,0.0905421897769,-9.85036182404
115,1348765042,308094978,1348765042,307784080,0.39711383176,0.917562989079,0.0185918498371,0.00575402605007,-0.0378150716424,0.00834938231856,0.00230070622638,0.0133188515902,0.0856885761023,-9.85290622711
116,1348765042,319192886,1348765042,318789958,0.397175370945,0.91753285171,0.0187442451469,0.00581756150738,-0.0416393093765,0.00760463159531,0.00940011069179,0.0133067965508,0.0857078880072,-9.85534000397
117,1348765042,328080892,1348765042,327780008,0.397219159943,0.917511953126,0.0188332432229,0.00583641969668,-0.0408158302307,0.00407217303291,0.0102674234658,0.0132874893025,0.0905736163259,-9.85537433624
118,1348765042,339081048,1348765042,338783979,0.397316443059,0.917466891872,0.0189252512667,0.00599843791704,-0.0492652244866,-0.00660641444847,0.0083137601614,0.0279077906162,0.0809238478541,-9.85929679871
119,1348765042,348269939,1348765042,347845077,0.397331959349,0.9174582618,0.0189926824389,0.00607700154843,-0.0421333238482,-0.00847115833312,0.00388653855771,0.0328680276871,0.0759566426277,-9.84436893463
120,1348765042,359205961,1348765042,358820915,0.397440023768,0.917409356792,0.0190939399138,0.00607626824542,-0.0463586263359,-0.00641629938036,0.01814956218,0.0182501766831,0.0759328603745,-9.84767723083
121,1348765042,368083953,1348765042,367786884,0.397515906545,0.917374033108,0.0192000859036,0.0061109838696,-0.0463490560651,0.00244274432771,0.0173384360969,0.0230874121189,0.0808322653174,-9.8498544693
122,1348765042,379004001,1348765042,378776073,0.39754504964,0.917359099826,0.0193284795891,0.00605188810288,-0.0439033955336,0.00394768826663,0.00399593962356,0.0133936330676,0.0758991912007,-9.84553527832
123,1348765042,388183116,1348765042,387877941,0.397527839409,0.917364322367,0.0193938986354,0.00618010015573,-0.0468655973673,-0.0174861568958,-0.00336537882686,0.0328198075294,0.0760338678956,-9.85410308838
124,1348765042,399121999,1348765042,398782968,0.397586549338,0.917336712699,0.0194986088395,0.00617216120493,-0.0406562648714,0.00224679335952,0.00756778474897,0.0230970662087,0.0783993974328,-9.84983730316
125,1348765042,408099889,1348765042,407778978,0.397594476227,0.917333797849,0.0194764108033,0.00616483731005,-0.0205912273377,0.000358690915164,0.00235063093714,0.0133815780282,0.0759185031056,-9.84796905518
126,1348765042,419166088,1348765042,418813943,0.397615194995,0.91732266618,0.0195682083056,0.00619419441964,-0.0385264307261,-0.00410966016352,0.000397550436901,0.0181801989675,0.090549364686,-9.85021591187
127,1348765042,428190946,1348765042,427823066,0.397678946556,0.917293141248,0.0196459448714,0.00622778736549,-0.0427617244422,0.000611226772889,0.0146786561236,0.0133067965508,0.0857078880072,-9.85534000397
128,1348765042,439071893,1348765042,438782930,0.397732133475,0.917266332432,0.0197749315549,0.00637004476932,-0.0457225106657,-0.0101957283914,0.00653126183897,0.0132103515789,0.0858623310924,-9.87480735779
129,1348765042,448009967,1348765042,447770118,0.39768169485,0.91728642003,0.0198319626018,0.00644875716806,-0.0430768243968,-0.00875633209944,-0.0103878127411,0.0230584982783,0.0760437548161,-9.8595533371
130,1348765042,459148883,1348765042,458822965,0.397725719432,0.917264845938,0.019928646431,0.00650411873785,-0.0449470989406,-0.0225695315748,0.00909878127277,0.0206868313253,0.0904407128692,-9.83546924591
131,1348765042,468091964,1348765042,467772006,0.397736318095,0.917258405918,0.0199909485835,0.00657267194293,-0.0438161939383,-0.00671526649967,0.00300329038873,0.0230488441885,0.0784766227007,-9.85957050323
132,1348765042,479134082,1348765042,478799104,0.397731710662,0.91725649437,0.0201483273018,0.00663737733733,-0.0419198945165,-0.00323581160046,-0.000516536238138,0.0254541821778,0.0857824012637,-9.85947799683
133,1348765042,488302946,1348765042,487828016,0.397704173621,0.917266628074,0.0202437466387,0.00659651641515,-0.041755348444,0.0161967147142,-0.00479196291417,0.0157410949469,0.0857150629163,-9.8551940918
134,1348765042,499110937,1348765042,498796939,0.397812198327,0.917218445917,0.0202912207018,0.0066365422649,-0.0425304658711,-0.00655364478007,0.0110336095095,0.0328632257879,0.0711295232177,-9.84920120239
135,1348765042,508049011,1348765042,507791996,0.397843038936,0.917203129103,0.0203519888489,0.00671810127215,-0.0457694344223,-0.00928602926433,0.00742460461333,0.0352106429636,0.0930325016379,-9.84921264648
136,1348765042,519150018,1348765042,518796920,0.397946733454,0.917155890211,0.0204188225539,0.0068221748593,-0.038270380348,0.000542173860595,0.0111413784325,0.0230487976223,0.0905637294054,-9.84992408752
137,1348765042,528080940,1348765042,527785062,0.398038251393,0.917115012135,0.0204759618406,0.00680734398375,-0.0379760526121,0.00783600099385,0.0210230369121,0.0230680592358,0.0977851077914,-9.84024238586
138,1348765042,539103984,1348765042,538779973,0.398089345651,0.917091573951,0.0205511863404,0.00675030418299,-0.0370500050485,0.00927829463035,0.0040844315663,0.0328752808273,0.0711102113128,-9.84676742554
139,1348765042,548226118,1348765042,547796010,0.398160416781,0.9170589158,0.0206214867446,0.00678098405459,-0.0445719063282,0.000650831672829,0.0164403505623,0.027989776805,0.078375145793,-9.84467792511
140,1348765042,559173107,1348765042,558777093,0.398221018933,0.917030719185,0.0207206913526,0.00673298602221,-0.0372055247426,0.0110997399315,0.00678686564788,0.0133839799091,0.0783320590854,-9.84555339813
141,1348765042,568217992,1348765042,567807912,0.398185823838,0.917044609353,0.0207730128321,0.0067613674114,-0.0415907688439,0.000189297134057,-0.00672695180401,0.0230488441885,0.0784766227007,-9.85957050323
142,1348765042,579055070,1348765042,578785896,0.398278871649,0.917004092819,0.0207383298979,0.00688155681024,-0.0251942276955,-0.0190158337355,0.00926124397665,0.0377559363842,0.0711052715778,-9.84404277802
143,1348765042,588505983,1348765042,587809085,0.398276613171,0.917003868651,0.0207738744954,0.00693472552795,-0.0410922206938,-0.0058751674369,0.000344219937688,0.0425642579794,0.0712161585689,-9.85591888428
144,1348765042,599132061,1348765042,598779916,0.398280922123,0.916996508768,0.0209792858115,0.0070412745359,-0.052358314395,-0.00673308735713,0.00205256487243,0.0255313199013,0.0904936864972,-9.84004402161
145,1348765042,608195066,1348765042,607855081,0.398263286104,0.917003296159,0.0209768432975,0.00716113259483,-0.0399769842625,-0.0210416708142,-0.00333907455206,0.0230922158808,0.0856593847275,-9.84502220154
146,1348765042,619199037,1348765042,618808984,0.398330042341,0.916969697289,0.0211447971865,0.00725597504198,-0.0553270727396,-0.00658542755991,0.00915531534702,0.0327908918262,0.0712453573942,-9.86380195618
147,1348765042,627986907,1348765042,627765893,0.398352268764,0.916959329584,0.0211592806217,0.0073036089096,-0.0379432737827,-0.00666005117819,0.00571623910218,0.0352782160044,0.0760024338961,-9.84909057617
148,1348765042,639058113,1348765042,638780117,0.398399117467,0.916937064133,0.0212158768946,0.00737903712325,-0.0377518571913,-0.00673514790833,0.00215882575139,0.0230681058019,0.0856979936361,-9.84988975525
149,1348765042,647984981,1348765042,647731065,0.398477207565,0.916901423197,0.021288695608,0.00738150598718,-0.045556537807,0.00600920012221,0.0182725265622,0.0181753952056,0.085722245276,-9.85504817963
150,1348765042,659128904,1348765042,658799886,0.39854117444,0.916869937869,0.0214450403096,0.00738644390016,-0.041005846113,0.00414454145357,0.0138290934265,0.0206579174846,0.0856522023678,-9.84516811371
151,1348765042,668062925,1348765042,667776107,0.398504809708,0.916883782395,0.0215161401956,0.00742306755422,-0.0484646596014,0.000188665551832,-0.00677252234891,0.0230729095638,0.0905251204967,-9.84505748749
152,1348765042,679065942,1348765042,678781986,0.398586101399,0.916844942446,0.0216438717556,0.00748425672366,-0.0392641611397,0.000595805817284,0.0138010364026,0.0280669610947,0.0709993243217,-9.83489131927
153,1348765042,688216924,1348765042,687832117,0.398606885977,0.916835104114,0.0216870626454,0.00745745462492,-0.0388637259603,0.00931165833026,0.00585741642863,0.0280428491533,0.0710379332304,-9.83975887299
154,1348765042,699100971,1348765042,698784112,0.39863864651,0.916817862461,0.0218137481491,0.00750979182277,-0.0479497537017,0.000313767057378,-0.000525304290932,0.0230246875435,0.0906023383141,-9.85479164124
155,1348765042,708044052,1348765042,707781076,0.398643126543,0.916813436888,0.0218884545413,0.00759441634708,-0.054071046412,-0.00850907992572,0.00202493462712,0.0181995071471,0.0856836363673,-9.85018062592
156,1348765042,719165086,1348765042,718796014,0.398622442923,0.916818127689,0.0220469189748,0.00765520094385,-0.0401315465569,-0.00681176176295,-0.00142052897718,0.00607142737135,0.0807433873415,-9.84600830078
157,1348765042,728097915,1348765042,727808952,0.39860226781,0.916825004193,0.0221049030494,0.00771472910987,-0.0494992956519,-0.00506733404472,-0.00325783807784,0.0132971424609,0.0881407484412,-9.8553571701
158,1348765042,739049911,1348765042,738766908,0.398680429689,0.916786967702,0.0222236873859,0.00785356947538,-0.0526217110455,-0.0137213757262,0.00732720084488,0.0352420508862,0.0760603547096,-9.85639095306
159,1348765042,748147964,1348765042,747770071,0.398694050972,0.916781254959,0.0222046955891,0.00788262456165,-0.0335547626019,-0.00580960093066,0.0039755422622,0.0328246094286,0.0808609873056,-9.84927082062
160,1348765042,759217023,1348765042,758826017,0.398730006709,0.916760669699,0.0223597035417,0.0080187218461,-0.0525553151965,-0.0190679747611,0.00639594951645,0.0230198837817,0.085775218904,-9.85962295532
161,1348765042,768152952,1348765042,767867088,0.398771084437,0.916741459678,0.0223991217229,0.00806211324578,-0.0459357649088,-0.00391217274591,0.010149942711,0.0181802455336,0.0784622579813,-9.85986232758
162,1348765042,779028892,1348765042,778779983,0.398813856546,0.916717725841,0.0225593773357,0.00819716110877,-0.0508998297155,-0.0137229217216,0.00733927823603,0.0328511707485,0.071148827672,-9.85163497925
163,1348765042,788155078,1348765042,787810087,0.398850287067,0.916700557638,0.022604946658,0.00821903401416,-0.0458978898823,0.000510891550221,0.00929007958621,0.0328873358667,0.0710909068584,-9.84433460236
164,1348765042,799118995,1348765042,798818111,0.398912296317,0.916669505298,0.0227454337573,0.00828511603879,-0.0526476129889,-0.00484725320712,0.00740225194022,0.0378186628222,0.0613351948559,-9.83910560608
165,1348765042,808099985,1348765042,807776927,0.398920943263,0.916665890982,0.0227391547735,0.00828590226788,-0.0352472402155,0.000377956079319,0.00313698290847,0.0133984368294,0.0807263180614,-9.84070396423
166,1348765042,819205045,1348765042,818814992,0.398948320483,0.916649893414,0.0229083581468,0.00827149414292,-0.0448693558574,0.00575924664736,0.00579056004062,0.0182477291673,0.0856064110994,-9.84044647217
167,1348765042,828129053,1348765042,827783107,0.399002886669,0.916627485526,0.0228494099132,0.00828575134448,-0.0271666776389,-0.00652323011309,0.0129380589351,0.0230512470007,0.0808901786804,-9.85715484619
168,1348765042,839114904,1348765042,838753938,0.399042742337,0.916606685246,0.0229577393221,0.00836758961271,-0.0271493643522,-0.0100744301453,0.012904218398,0.0182092059404,0.071163661778,-9.85980987549
169,1348765042,852009057,1348765042,847778081,0.399103925949,0.91658023233,0.0229541925072,0.00835697554009,-0.0358892120421,0.00239390367642,0.014727181755,0.0377029106021,0.0663553699851,-9.85860824585
170,1348765042,859164953,1348765042,858814954,0.399146719126,0.91655778284,0.0230782515569,0.00843336418032,-0.0423263683915,-0.00929066725075,0.00745001202449,0.0231091212481,0.0783800929785,-9.84740352631
171,1348765042,868243932,1348765042,867919921,0.399192144155,0.916538138001,0.0230577617694,0.0084742702205,-0.037372790277,-0.00833187717944,0.0110647194088,0.0279415082186,0.0905394777656,-9.84476566315
172,1348765042,879106044,1348765042,878778934,0.399241227878,0.91651475921,0.0231000096119,0.00857482760553,-0.0384239032865,-0.00324990064837,-0.00139539327938,0.0426245331764,0.0711196288466,-9.84375095367
173,1348765042,889229059,1348765042,888833045,0.399293833259,0.916491028965,0.0231276085053,0.00858733204813,-0.0444063022733,0.000602636893746,0.0129324514419,0.0279393475503,0.0759210437536,-9.84449005127
174,1348765042,899315118,1348765042,898901939,0.399356647523,0.916460612316,0.0232470617114,0.00859001010409,-0.0399362780154,0.00496851978824,0.0094380043447,0.0230177156627,0.0711567774415,-9.85934734344
175,1348765042,909099102,1348765042,908783912,0.399401401319,0.916440428677,0.0232575559076,0.0086340839029,-0.0442775525153,-0.00653056520969,0.0110786082223,0.0328224562109,0.066242530942,-9.84899520874
176,1348765042,920614957,1348765042,918776988,0.399406866404,0.91643401062,0.0233815347448,0.00872714619073,-0.0377575270832,-0.0120360013098,0.00216577574611,0.0279079843313,0.0808060914278,-9.8469581604
177,1348765042,929068088,1348765042,928808927,0.399402193251,0.916435901177,0.0233885475057,0.00872369792,-0.0403022915125,0.00213017151691,0.000494560459629,0.027828399092,0.0857683643699,-9.85916042328
178,1348765042,939071893,1348765042,938832044,0.399435344983,0.916416871385,0.0235657248149,0.00872809448441,-0.0415389873087,0.0120178451762,0.0068147778511,0.0327524803579,0.0808590650558,-9.85153388977
179,1348765042,949131965,1348765042,948839902,0.399457969193,0.916405423213,0.0236306558185,0.008719131776,-0.0509696155787,0.00757953198627,0.00670641381294,0.0279296953231,0.0783539116383,-9.84450721741
180,1348765042,959239006,1348765042,958818912,0.399503761104,0.916381683164,0.023780041606,0.00871006584423,-0.0448810644448,0.0128641929477,0.00502400100231,0.0181779786944,0.0880180597305,-9.84029388428
181,1348765042,969085931,1348765042,968789100,0.399523685672,0.916372295636,0.0237905512416,0.00875500136535,-0.0457087568939,-0.00663792807609,0.00572196068242,0.02789112553,0.0759982690215,-9.85422420502
182,1348765042,979027986,1348765042,978779077,0.399541961796,0.916360671461,0.0238918525184,0.00886114822708,-0.0402334406972,-0.012961730361,0.000359007710358,0.0181804262102,0.0783444941044,-9.84752368927
183,1348765042,989084959,1348765042,988786935,0.399549097177,0.916357115927,0.0239057912301,0.00886950851105,-0.0438701510429,0.000405893166317,0.00312700774521,0.0230707414448,0.0759066790342,-9.84478092194
184,1348765042,999130010,1348765042,998774051,0.399649834486,0.916309530012,0.0240071746568,0.00897276818145,-0.0410818643868,-0.00910845026374,0.0155508127064,0.0229887086898,0.0905425176024,-9.84975337982
185,1348765043,9067058,1348765043,8780002,0.399619918548,0.91632065531,0.0240501048834,0.00905371785967,-0.0554192960262,-0.0103992382064,-0.00508350785822,0.0327934511006,0.0856282785535,-9.83940124512
186,1348765043,19198894,1348765043,18811941,0.399597998737,0.916327204527,0.024147396108,0.00909928077291,-0.0271789692342,-0.00504546705633,-0.00304298778065,0.0279682632536,0.0807095617056,-9.8347902298
187,1348765043,29103994,1348765043,28780937,0.399621254951,0.916317161113,0.0241500521252,0.00908228076859,-0.0406477712095,0.00402348022908,0.00675878534093,0.0132708037272,0.0856480523944,-9.85030174255
188,1348765043,39097070,1348765043,38825035,0.399663053119,0.916294286793,0.0243111761816,0.00912089227232,-0.0407885201275,0.00230264570564,0.00941893644631,0.0181249063462,0.0953552871943,-9.8452129364
189,1348765043,49184083,1348765043,48794031,0.399717151614,0.916269238883,0.0243831750868,0.00907421374406,-0.0513931363821,0.014820269309,0.0139086749405,0.0230080150068,0.0856767743826,-9.84971809387
190,1348765043,59137105,1348765043,58790922,0.399742685855,0.916255814026,0.0244571855422,0.00910573692383,-0.0349558144808,0.00382909923792,-0.00301315146498,0.0181394089013,0.0856624171138,-9.85000991821
191,1348765043,69093942,1348765043,68803071,0.399747009925,0.916255728345,0.02438593971,0.00911560612235,-0.0300419852138,-0.00671440316364,0.00227259192616,0.0255339592695,0.0807023793459,-9.83493614197
192,1348765043,79097986,1348765043,78807115,0.399767597854,0.916241542374,0.0245540469515,0.00918708402859,-0.049006704241,-0.0049192449078,0.00304615031928,0.0230489857495,0.0904459878802,-9.83758544922
193,1348765043,89215040,1348765043,88782072,0.399771818349,0.916241456898,0.0244813713691,0.00920588787992,-0.0308936405927,-0.00848806649446,0.00224623153917,0.0255243517458,0.0710481181741,-9.84460067749
194,1348765043,99096059,1348765043,98797082,0.399773928537,0.916235656499,0.0246129469975,0.00933973560294,-0.0436554960907,-0.018287723884,0.000293529417831,0.0132321892306,0.0953795388341,-9.85037136078
195,1348765043,109067916,1348765043,108815908,0.399824652334,0.916213282455,0.024633427481,0.00930927978805,-0.0444431006908,0.00770301790908,0.0130014754832,0.02540615201,0.0857418775558,-9.85687351227
196,1348765043,119187116,1348765043,118802070,0.399857942599,0.916195024344,0.0247371593011,0.00940085409691,-0.040518194437,-0.0155128100887,0.00568040693179,0.0327452272177,0.0857055038214,-9.84913539886
197,1348765043,128951072,1348765043,128735065,0.399844038334,0.916201319251,0.0247290633494,0.00940005517216,-0.0419136285782,0.000320782331983,-0.00131939700805,0.0327331721783,0.0857248082757,-9.85156822205
198,1348765043,139105081,1348765043,138822078,0.39992076742,0.916161569521,0.0248953425715,0.00956975635018,-0.0513977631927,-0.0197378136218,0.0162657070905,0.0229791011661,0.0808882564306,-9.85941696167
199,1348765043,149139881,1348765043,148813962,0.399932249148,0.916157354038,0.024853817268,0.00960138010374,-0.0387308597565,-0.00845395680517,0.00398214068264,0.018153866753,0.0880566760898,-9.84516048431
200,1348765043,159203052,1348765043,158824920,0.400038126321,0.916104959779,0.0250547751722,0.00966738846306,-0.0551133491099,0.00162987434305,0.0200057066977,0.0181876327842,0.0855851918459,-9.84027576447
201,1348765043,169095993,1348765043,168823003,0.400107166975,0.91607572532,0.0250010471869,0.00971946780095,-0.0385277569294,-0.0135295549408,0.0164176113904,0.0230755452067,0.0807338133454,-9.83994960785
202,1348765043,179008007,1348765043,178772926,0.400128662737,0.916060498229,0.0251381611283,0.00991411596835,-0.0572825931013,-0.0236388798803,-0.00165159418248,0.0327211171389,0.08574411273,-9.8540019989
203,1348765043,189152002,1348765043,188776016,0.400163753003,0.916046472715,0.0251010410395,0.00988778778646,-0.0356292426586,0.002305139089,0.00944888591766,0.0279007330537,0.0856525301933,-9.84455966949
204,1348765043,199083089,1348765043,198779106,0.400176830515,0.916036440269,0.0252604166709,0.00988209327283,-0.0387869030237,0.0057477154769,0.00410681264475,0.0230514351279,0.0807724222541,-9.84481620789
205,1348765043,209065914,1348765043,208777904,0.400169996699,0.916039320369,0.0252695992452,0.00986836534586,-0.0454615838826,0.00390539271757,0.000473995896755,0.0327644906938,0.092926889658,-9.8394536972
206,1348765043,219176054,1348765043,218780040,0.400236215189,0.916004345545,0.025434683731,0.010004391906,-0.0478045940399,-0.00915394350886,0.0128115015104,0.0425210557878,0.0760027393699,-9.84848213196
207,1348765043,229233980,1348765043,228904008,0.400272934717,0.915991069409,0.0253318516019,0.0100117825751,-0.0269874576479,-0.00923866778612,0.00941510964185,0.0181972403079,0.0952394530177,-9.83061218262
208,1348765043,239088058,1348765043,238797903,0.400371238716,0.915943539309,0.0254542775908,0.0101184860043,-0.042858093977,-0.00465157488361,0.0164602417499,0.0279683098197,0.0686224251986,-9.84443759918
209,1348765043,249054908,1348765043,248802900,0.400322566776,0.915963964559,0.0254939056441,0.0100954907712,-0.0510054677725,0.00816772226244,-0.00845135189593,0.0327741876245,0.0784068852663,-9.84908294678
210,1348765043,259160995,1348765043,258771896,0.400353882014,0.915944134838,0.0256876599877,0.010161453412,-0.0458815470338,0.00050901947543,0.00847112108022,0.0157774407417,0.0855394005775,-9.8355550766
211,1348765043,269107103,1348765043,268780946,0.400371499922,0.91593520935,0.0257119261808,0.0102103464322,-0.0543004460633,-0.0066422522068,0.00566831650212,0.0157533288002,0.0855780094862,-9.84042167664
212,1348765043,279113054,1348765043,278779983,0.400455577781,0.915893115121,0.025879883342,0.0102646741599,-0.0462437048554,0.00418852036819,0.0147397583351,0.0254182070494,0.0857225731015,-9.85443973541
213,1348765043,289216041,1348765043,288815021,0.400445842536,0.915898339751,0.0258339251905,0.0102940150794,-0.0402079448104,-0.00854098517448,-0.000490643898956,0.0181128960103,0.0832874625921,-9.85729312897
214,1348765043,299101114,1348765043,298819065,0.400513625727,0.915863418951,0.0259806116847,0.0103942893466,-0.0460126511753,-0.00297935050912,0.0110999047756,0.0376765616238,0.0759497657418,-9.84390640259
215,1348765043,309089899,1348765043,308814048,0.400562837708,0.915842540287,0.0259885399736,0.0103174724754,-0.0418921001256,0.0147999785841,0.0130867185071,0.0181346051395,0.0808352828026,-9.85484218597
216,1348765043,319286108,1348765043,318783998,0.400539501275,0.915847414651,0.0261509020836,0.0103803331328,-0.0401624552906,-0.00678606145084,-0.00136543507688,0.0132997650653,0.0783494412899,-9.85024929047
217,1348765043,329114913,1348765043,328780889,0.400594023699,0.915823452246,0.0261439260389,0.010408055713,-0.0478740036488,-0.00559195550159,0.0137475077063,0.0229718498886,0.0857346951962,-9.85701847076
218,1348765043,339099884,1348765043,338777065,0.400577869456,0.915827947635,0.0262131166187,0.0104600836639,-0.0295716356486,-0.00511822709814,-0.00662077777088,0.0132225807756,0.0857252776623,-9.8600358963
219,1348765043,349133014,1348765043,348818063,0.400611891709,0.915813040184,0.0262030646261,0.0104874712877,-0.0476233772933,-0.00567909050733,0.00928117427975,0.0279200859368,0.0686996504664,-9.85417175293
220,1348765043,359261035,1348765043,358793020,0.400651964188,0.915793408452,0.026271113924,0.0105007238108,-0.0300908125937,0.00393476290628,0.00237253424712,0.018158717081,0.0807966738939,-9.84997463226
221,1348765043,369158029,1348765043,368774890,0.40069059587,0.915777835115,0.0262226105238,0.010506083506,-0.0390840992332,-0.00477808294818,0.0102508869022,0.0230514351279,0.0807724222541,-9.84481620789
222,1348765043,379120111,1348765043,378786087,0.400715053602,0.915760929631,0.0263918609898,0.0106223938372,-0.0408034808934,-0.016297949478,0.0110229514539,0.0181732196361,0.0711038038135,-9.85477161407
223,1348765043,389183998,1348765043,388832092,0.400782391996,0.915733069464,0.0263325562047,0.0106309096827,-0.0377050638199,-0.00642631528899,0.0164877548814,0.027840455994,0.0857490599155,-9.8567276001
224,1348765043,399122953,1348765043,398818969,0.400835729387,0.915703340908,0.026524032472,0.010704447625,-0.0518734864891,0.00582347717136,0.00757521390915,0.0278814714402,0.0784311369061,-9.85424137115
225,1348765043,409110069,1348765043,408812999,0.400862215437,0.915692438104,0.0264811459758,0.0107513692819,-0.0440709404647,-0.011931117624,0.00747890071943,0.0180959906429,0.0905667692423,-9.8549118042
226,1348765043,419214010,1348765043,418817043,0.400896377319,0.915674066857,0.0265805235315,0.010796930439,-0.0336190164089,0.000422273355071,0.00410122657195,0.0180477686226,0.0906439945102,-9.86464595795
227,1348765043,429080963,1348765043,428777933,0.400957963921,0.915647430103,0.0265757223576,0.0107808114131,-0.0462810099125,0.00242682523094,0.0156180858612,0.0132997650653,0.0783494412899,-9.85024929047
228,1348765043,439068078,1348765043,438780069,0.40102841051,0.915613847083,0.0266573064766,0.0108113368779,-0.0339894108474,-0.00298759574071,0.0112012699246,0.0156809948385,0.0856938511133,-9.85502243042
229,1348765043,449342012,1348765043,448797941,0.40101254976,0.915621572619,0.0266412352158,0.0107849560337,-0.043644271791,0.00386824668385,-0.00129892444238,0.0230225194246,0.0759839043021,-9.85451507568
230,1348765043,459165096,1348765043,458820104,0.401000134501,0.915621630091,0.0267985495666,0.0108517454876,-0.0452303104103,-0.00504010031,-0.00317705236375,0.0278694164008,0.0784504413605,-9.85667514801
231,1348765043,469105005,1348765043,468775033,0.401017481169,0.915615353052,0.0267609677192,0.010833081683,-0.0405923314393,0.000462611787952,0.00582945765927,0.0277608707547,0.0907113328576,-9.86892986298
232,1348765043,479084968,1348765043,478789091,0.401048324717,0.915597294248,0.0268990440644,0.0108755430138,-0.0354464836419,0.0049016000703,0.00589840300381,0.0376042276621,0.0760655999184,-9.85850715637
233,1348765043,489284992,1348765043,488816022,0.401041592617,0.915601424036,0.0268519205832,0.0108925504778,-0.0419800393283,-0.00674656499177,0.00040065110079,0.0230128653347,0.0784167796373,-9.8545331955
234,1348765043,499212980,1348765043,498819112,0.401048657124,0.915591852468,0.0270270706411,0.0110032616395,-0.0488571487367,-0.00585791142657,0.000357382232323,0.0230225194246,0.0759839043021,-9.85451507568
235,1348765043,509062051,1348765043,508790969,0.401026432995,0.915603826486,0.0269392772398,0.0110321486822,-0.0357456542552,-0.012141386047,-0.00317331333645,0.0327886454761,0.0808011442423,-9.84423351288
236,1348765043,519100904,1348765043,518779039,0.40106001666,0.915583983601,0.0270882241076,0.0110932467818,-0.0440057516098,-0.00308985100128,0.00577002158388,0.0230128653347,0.0784167796373,-9.8545331955
237,1348765043,529154062,1348765043,528784990,0.401044983648,0.91559398649,0.027000596733,0.0110245530954,-0.0281876586378,0.00564438709989,-0.00117188831791,0.0327163115144,0.0809169858694,-9.85883426666
238,1348765043,539097070,1348765043,538778066,0.401041552544,0.915590585043,0.0271116400063,0.0111585254516,-0.0433761365712,-0.0121771628037,-0.00501373503357,0.0328706353903,0.0782524347305,-9.82961463928
239,1348765043,549349069,1348765043,548804044,0.401050772962,0.915586751408,0.0270814393926,0.0112148915424,-0.0490146651864,-0.0128873912618,0.00385568384081,0.0280068777502,0.0709780752659,-9.83472061157
240,1348765043,559191942,1348765043,558770895,0.401048511305,0.915582311922,0.0272485995034,0.0112532440433,-0.0286517832428,0.000490064034238,0.00770524982363,0.0157051067799,0.0856552347541,-9.85015583038
241,1348765043,569097042,1348765043,568789958,0.401009365535,0.915602248536,0.0271590224407,0.0112427189545,-0.0330024473369,-0.00511687994003,-0.00664879148826,0.0230586398393,0.0880131199956,-9.83756828308
242,1348765043,579076051,1348765043,578807115,0.401029668789,0.915588955568,0.0272531765253,0.011372491454,-0.0402222797275,-0.0165105499327,0.000328980240738,0.0230128206313,0.0905039086938,-9.84488677979
243,1348765043,589131116,1348765043,588792085,0.401026707267,0.915591630753,0.027197877643,0.0113939108644,-0.0420234650373,-0.00850427616388,0.00128061813302,0.0254374686629,0.0929439589381,-9.84475803375
244,1348765043,599113941,1348765043,598818063,0.401062494729,0.915570834116,0.0273277362605,0.0114942537271,-0.0414053089917,-0.0084164198488,0.0057433526963,0.0230321269482,0.0856381654739,-9.84485149384
245,1348765043,609076023,1348765043,608782052,0.401054237586,0.915574341648,0.0273215036048,0.0115177632867,-0.0514385327697,-0.0049693970941,0.000344618223608,0.0230177156627,0.0711567774415,-9.85934734344
246,1348765043,619249105,1348765043,618777990,0.401103849132,0.915549090684,0.0274031218867,0.0116031749896,-0.0270808469504,-0.0100897001103,0.011185510084,0.0157485250384,0.0807508826256,-9.8452539444
247,1348765043,629242897,1348765043,628818035,0.401120394563,0.915543789723,0.0273532323475,0.0115671451197,-0.0388730429113,0.00223366776481,0.0058592655696,0.0230080150068,0.0856767743826,-9.84971809387
248,1348765043,639058113,1348765043,638787984,0.401210935013,0.915498438838,0.0275245937911,0.011609946074,-0.0464355945587,0.00248542032205,0.0182923730463,0.0278018414974,0.0954805463552,-9.85679721832
249,1348765043,649082899,1348765043,648785114,0.401250132352,0.915481623546,0.027538928029,0.0115471070111,-0.0486636981368,0.0121040893719,0.0112311225384,0.0180574227124,0.0882111266255,-9.86462879181
250,1348765043,659147024,1348765043,658829927,0.401357131925,0.91542908212,0.0277007667458,0.0116067128927,-0.0498301833868,0.00601926911622,0.0173997376114,0.0327741876245,0.0784068852663,-9.84908294678
251,1348765043,669075965,1348765043,668781042,0.401438545757,0.915394581017,0.0276738674041,0.0115763589781,-0.0439436212182,0.00251724827103,0.0200909785926,0.0230851992965,0.0783009380102,-9.83993148804
252,1348765043,679069042,1348765043,678780078,0.401409064872,0.915402162909,0.0278158117676,0.0116586189579,-0.0382447168231,-0.00685192132369,-0.00492850458249,0.0328320637345,0.0758967921138,-9.83933067322
253,1348765043,689208030,1348765043,688780069,0.401425800616,0.915398293947,0.0277347552116,0.0115790065493,-0.0302969366312,0.00755825033411,0.00596449896693,0.025500241667,0.0710867270827,-9.84946727753
254,1348765043,699074983,1348765043,698793888,0.401455198172,0.915378585021,0.0279203315423,0.0116715480123,-0.050870846957,-0.00486015668139,0.00569626502693,0.032766982913,0.0711661949754,-9.85633087158
255,1348765043,709064960,1348765043,708785057,0.401443013418,0.915386100664,0.0278683166289,0.0116254297508,-0.0385340750217,0.00388568616472,-0.00037133845035,0.0279393475503,0.0759210437536,-9.84449005127
256,1348765043,720263957,1348765043,719880104,0.401457016404,0.915372399541,0.0280582299332,0.0117630723859,-0.0523783378303,-0.00848195515573,0.00208694441244,0.0327958986163,0.0759547129273,-9.84663200378
257,1348765043,729109048,1348765043,728811979,0.401450386014,0.915378684313,0.0279562642791,0.0117430474051,-0.0316779352725,-0.00497741624713,0.000501574308146,0.0132635515183,0.0904944911599,-9.84790325165
258,1348765043,740149974,1348765043,739854097,0.401468191761,0.915365069941,0.0281024636764,0.0118461500764,-0.0471420064569,-0.00585671979934,0.000371386267943,0.0278525110334,0.0857297554612,-9.85429382324
259,1348765043,749150991,1348765043,748752117,0.401468491152,0.915367462816,0.028036546858,0.0118072296082,-0.0369555205107,0.0012761199614,0.00229352014139,0.0229984074831,0.0760225132108,-9.85938262939
260,1348765043,760190010,1348765043,759787082,0.401525316673,0.915336101105,0.0282378662037,0.0118264532974,-0.0478760488331,0.00770394690335,0.0129726342857,0.0278935283422,0.0784118324518,-9.8518075943
261,1348765043,769170045,1348765043,768770933,0.401562467407,0.915322869256,0.0281599058279,0.0117749518222,-0.0339575260878,0.00232325936668,0.0103493947536,0.0279152374715,0.0759596526623,-9.84935665131
262,1348765043,780109882,1348765043,779815912,0.401642574601,0.915283306687,0.0282816127879,0.0118262904307,-0.0376303084195,0.000635657168459,0.0147682260722,0.0230586864054,0.0759259834886,-9.84721469879
263,1348765043,789109945,1348765043,788781881,0.401684562635,0.915266871381,0.0282076352314,0.0118488652834,-0.0408324301243,-0.0109732216224,0.0110786370933,0.0180959906429,0.0905667692423,-9.8549118042
264,1348765043,800156116,1348765043,799788951,0.401765597913,0.915225095716,0.0283592722423,0.0119657921947,-0.0428567193449,-0.00642780587077,0.0164505206048,0.0230273231864,0.0808110386133,-9.8496837616
265,1348765043,809087038,1348765043,808780908,0.401764115827,0.915225931892,0.0283631443232,0.0119423980151,-0.0515704341233,0.00394127611071,0.00220875279047,0.0279272925109,0.075940348208,-9.84692287445
266,1348765043,820209980,1348765043,819865942,0.401825122848,0.915193870439,0.0285040195275,0.0120112875991,-0.0392409563065,-0.00294779753312,0.0129413371906,0.0278766229749,0.085691139102,-9.84942626953
267,1348765043,829193115,1348765043,828826904,0.401849109542,0.915185383375,0.0284580710341,0.0119643391177,-0.0406999178231,0.00404429528862,0.00764959910884,0.0229694005102,0.0954082608223,-9.84978866577
268,1348765043,840049982,1348765043,839780092,0.401904187094,0.915155415531,0.0285868305998,0.0120988816423,-0.0450894087553,-0.0189602244645,0.0109717072919,0.0230586398393,0.0880131199956,-9.83756828308
269,1348765043,849029064,1348765043,848767995,0.401969147976,0.915130035039,0.0285189875894,0.0120204156008,-0.0343236029148,0.00776692898944,0.0166502930224,0.0132852615789,0.0880423113704,-9.84545230865
270,1348765043,860166072,1348765043,859833955,0.402063437067,0.91508222614,0.0286891626659,0.0121014016319,-0.0440564788878,-0.00630615418777,0.0226887576282,0.015736469999,0.0807701870799,-9.84768772125
271,1348765043,869152069,1348765043,868844032,0.402021366603,0.915098916703,0.0287179229442,0.0121685802146,-0.0639144331217,-0.0104337250814,-0.00693149212748,0.0279152374715,0.0759596526623,-9.84935665131
272,1348765043,880125045,1348765043,879790067,0.402018775079,0.915094591078,0.0288986413939,0.0121516414173,-0.0403054989874,0.01541903615,-0.000268797739409,0.0132708037272,0.0856480523944,-9.85030174255
273,1348765043,889045953,1348765043,888784885,0.402067109669,0.915075466713,0.0288522703398,0.0121027285324,-0.0409881547093,0.00414899876341,0.0129978973418,0.0181514658034,0.0856431126595,-9.84757614136
274,1348765043,900089025,1348765043,899811029,0.402079480347,0.915064060661,0.0290162431139,0.0121619902036,-0.0453737303615,0.00564018823206,-0.00128744740505,0.0132466927171,0.0856866687536,-9.85516834259
275,1348765043,909008979,1348765043,908781051,0.402096264899,0.91505951991,0.0289363684636,0.0121390014302,-0.0371330864727,-0.00308993970975,0.00582022266462,0.0254254601896,0.080876134336,-9.85683822632
276,1348765043,920118093,1348765043,919823884,0.402099604419,0.915049043661,0.0291490353467,0.0123081094932,-0.0584052167833,-0.0191214829683,0.00285523198545,0.00837563816458,0.0953458696604,-9.84822940826
277,1348765043,929089069,1348765043,928817987,0.402106604925,0.915048812478,0.0290966838552,0.0122201492333,-0.037090331316,0.0110724242404,0.0041679982096,0.0230514351279,0.0807724222541,-9.84481620789
278,1348765043,940040111,1348765043,939776897,0.40215078185,0.915024434141,0.0292080098265,0.0123258161364,-0.0404583364725,-0.00489883124828,0.00399277126417,0.0377102792263,0.0855654105544,-9.82937526703
279,1348765043,949139118,1348765043,948890924,0.402139729002,0.915032284903,0.0291101639188,0.0123350841224,-0.0367576777935,-0.0103145996109,-0.000487344630528,0.0279296953231,0.0783539116383,-9.84450721741
280,1348765043,960225105,1348765043,959824085,0.402166585275,0.915013193505,0.0293051646658,0.0124137312889,-0.0509639009833,-0.00660386914387,0.00747319264337,0.0230080150068,0.0856767743826,-9.84971809387
281,1348765043,969073057,1348765043,968816041,0.402198764603,0.914999605622,0.029272873876,0.0124488681385,-0.0510365106165,-0.0101151745766,0.0092117683962,0.0353049822152,0.0661724880338,-9.83911514282
282,1348765043,980010986,1348765043,979773044,0.402092460977,0.915041663131,0.0293906905889,0.0125137870772,-0.0305144283921,-0.00362624996342,-0.0208847038448,0.0181394089013,0.0856624171138,-9.85000991821
283,1348765043,989156961,1348765043,988795042,0.402052849764,0.915063674907,0.0292625519607,0.0124771757404,-0.0278542563319,-0.00422779889777,-0.00660527218133,0.0254302639514,0.0857032611966,-9.85200595856
284,1348765044,160932,1348765043,999867916,0.402074976066,0.915048007071,0.0294120442079,0.0125614502589,-0.0430476255715,-0.00489668920636,0.00397773180157,0.035116802901,0.0954827815294,-9.85392665863
285,1348765044,9123086,1348765044,8778095,0.402110987977,0.9150333738,0.0293738429863,0.0125640569819,-0.0476766191423,-0.00477228220552,0.0101795876399,0.0327790379524,0.0711468830705,-9.85389709473
286,1348765044,20232915,1348765044,19857883,0.402126333625,0.915019850786,0.0295638174216,0.0126121041906,-0.0506306737661,0.00745804701,0.000461836374598,0.0327597297728,0.0760126262903,-9.85393238068
287,1348765044,29098987,1348765044,28825044,0.402141182017,0.915014570549,0.0295379648341,0.0125822908456,-0.047469034791,0.00223933742382,0.0057915225625,0.0326970033348,0.0857827290893,-9.85886955261
288,1348765044,40087938,1348765044,39833068,0.402172616368,0.914994476099,0.0296854656558,0.0126912757833,-0.0406467989087,-0.00837901327759,0.00753232045099,0.0278573147953,0.0905568823218,-9.84946155548
289,1348765044,49201965,1348765044,48774003,0.402188158039,0.914988344037,0.0296565384005,0.0127084829516,-0.0508655384183,-0.00664222380146,0.00569248106331,0.0132780550048,0.0808016210794,-9.85270023346
290,1348765044,60134887,1348765044,59802055,0.40223167036,0.914961971256,0.029810314965,0.0128693292766,-0.0526212081313,-0.0208042636514,0.00732947746292,0.0206026732922,0.0783709809184,-9.84981155396
291,1348765044,69102048,1348765044,68780899,0.402239504096,0.914960194657,0.0297563076091,0.0128757794065,-0.0456079468131,-0.00667387386784,0.00393712893128,0.0279345437884,0.0710939094424,-9.84932136536
292,1348765044,80137968,1348765044,79812049,0.402298664125,0.914929095034,0.0298927485097,0.0129212805141,-0.0424586385489,0.00406525051221,0.00851726811379,0.0328079536557,0.0759354010224,-9.84419822693
293,1348765044,89221000,1348765044,88829040,0.402367979176,0.91490305526,0.0297899007091,0.0128440891103,-0.0300667099655,0.00423612864688,0.0175395682454,0.0131984697655,0.0857638940215,-9.86490249634
294,1348765044,100157022,1348765044,99884986,0.402420195618,0.914874821197,0.0299301465694,0.0128931774285,-0.0374411642551,0.000566163333133,0.0112040666863,0.0254182070494,0.0857225731015,-9.85443973541
295,1348765044,109018087,1348765044,108731985,0.402394696694,0.914888723203,0.0298722568184,0.0128366857453,-0.0401169881225,0.00471577281132,-0.00303895864636,0.0132514964789,0.0905137956142,-9.8503370285
296,1348765044,120207071,1348765044,119854927,0.402412008861,0.914876195111,0.0299751807632,0.0129464776048,-0.0309907831252,-0.00933962035924,0.00402296846732,0.0254809334874,0.0759524703026,-9.84950256348
297,1348765044,129184007,1348765044,128890037,0.402447793508,0.914863359633,0.0299115604223,0.0128881827187,-0.0391229726374,0.00409989338368,0.0103275021538,0.0278790704906,0.0760175734758,-9.8566570282
298,1348765044,140073060,1348765044,139782905,0.402481943002,0.914844057422,0.0300096619251,0.0129636549057,-0.0320440903306,-0.00926738791168,0.0075801233761,0.027922488749,0.0711132138968,-9.85175514221
299,1348765044,149089097,1348765044,148844003,0.402533536266,0.914824557127,0.0299494996971,0.0128766970338,-0.0376227088273,0.00949003361166,0.0139662465081,0.0157099105418,0.0904823690653,-9.84532356262
300,1348765044,160274982,1348765044,159828901,0.402566425117,0.914805559461,0.0300945651034,0.0128599727509,-0.0338506661355,0.0111438240856,0.0077602583915,0.0254543740302,0.085664652288,-9.84713935852
301,1348765044,169198036,1348765044,168813943,0.402540300542,0.914819517336,0.0300515072228,0.0127853062331,-0.041855905205,0.00915388949215,-0.0030076361727,0.0181104019284,0.105048164725,-9.84041595459
302,1348765044,180046081,1348765044,179775953,0.402541074234,0.914815367328,0.0301514816717,0.0128224572091,-0.030738979578,0.000314426550176,-0.00123265164439,0.0230562388897,0.0855995565653,-9.83998394012
303,1348765044,189357995,1348765044,188790082,0.402508771425,0.914832448657,0.0300632107828,0.0128250991159,-0.0399566031992,-0.00862577557564,-0.00495931925252,0.0328152067959,0.0710889697075,-9.84659671783
304,1348765044,200104951,1348765044,199804067,0.402567811568,0.914799907373,0.0302490989996,0.0128560712865,-0.0444357171655,0.00769941741601,0.0130015565082,0.0182021353394,0.0758923217654,-9.84507274628
305,1348765044,209037065,1348765044,208745002,0.402575500217,0.914799022899,0.0301801399052,0.0128403069927,-0.0421867780387,-0.00401124171913,0.00398909254,0.0278694164008,0.0784504413605,-9.85667514801
306,1348765044,220201969,1348765044,219891071,0.402634514821,0.914769255276,0.0302675168698,0.012904824611,-0.0270811207592,0.000545342219993,0.010391193442,0.0229887086898,0.0905425176024,-9.84975337982
307,1348765044,229244947,1348765044,228862047,0.402699197879,0.914741963414,0.0302230928685,0.0129252100238,-0.0497199930251,-0.00908757559955,0.0163735914975,0.0278959292918,0.0808253958821,-9.84939193726
308,1348765044,240065097,1348765044,239782094,0.402753253473,0.914712458607,0.0303635565753,0.0129995891746,-0.0382499210536,0.000551032368094,0.0103011149913,0.0327404253185,0.0808783695102,-9.85396671295
309,1348765044,249088048,1348765044,248723030,0.402777172755,0.914705214342,0.0302840066957,0.0129537215187,-0.0381046757102,0.000489263969939,0.00763818901032,0.00595103483647,0.0808186903596,-9.85800457001
310,1348765044,260158061,1348765044,259833097,0.402776093963,0.914699632723,0.0304502535479,0.0129916160647,-0.0436494387686,0.00476028164849,-0.00129641522653,0.0351699218154,0.0760584175587,-9.85865306854
311,1348765044,269109964,1348765044,268815040,0.402825188295,0.9146806926,0.0303677578038,0.012996058856,-0.0417916327715,-0.00916360039264,0.0128702446818,0.0181635208428,0.0856238007545,-9.84514331818
312,1348765044,280088901,1348765044,279804944,0.402836864124,0.914671811794,0.0304841442563,0.0129867071063,-0.0267674066126,0.0075231124647,0.00420981971547,0.0278742201626,0.0832775756717,-9.85184288025
313,1348765044,289202928,1348765044,288779020,0.402894982392,0.914650309452,0.0303608664853,0.0129870076862,-0.0341368056834,-0.0117868687958,0.0146732283756,0.035297729075,0.0710189267993,-9.83671665192
314,1348765044,300059080,1348765044,299772977,0.40295238972,0.914617756801,0.0305338186466,0.0130926117164,-0.0511047244072,-0.00654745381325,0.0101374676451,0.0303640440106,0.0662739649415,-9.85400772095
315,1348765044,309118986,1348765044,308810949,0.403032399815,0.914585286688,0.0304794286713,0.013024688108,-0.0413845032454,0.00606624642387,0.0201450437307,0.018158717081,0.0807966738939,-9.84997463226
316,1348765044,320271015,1348765044,319884061,0.403032005215,0.914577673464,0.030690684477,0.0130753149021,-0.0539598837495,0.00564466742799,-0.00135922979098,0.0255050454289,0.0759138613939,-9.84463596344
317,1348765044,329111099,1348765044,328782081,0.403127596348,0.914537695158,0.0306597012248,0.0129972273793,-0.0450314581394,0.0096871657297,0.0237205252051,0.0181635208428,0.0856238007545,-9.84514331818
318,1348765044,340117931,1348765044,339821100,0.403143332656,0.914522812323,0.0308328779303,0.0131458249865,-0.0491085797548,-0.0172880142927,0.00560501823202,0.0229356829077,0.0857926160097,-9.86431980133
319,1348765044,349138975,1348765044,348812103,0.403159269748,0.914518514165,0.0307564143536,0.0131351985603,-0.0422735512257,-0.00575172761455,0.00575459934771,0.0254761297256,0.071125343442,-9.85433483124
320,1348765044,360306978,1348765044,359819889,0.403245137309,0.914475026453,0.0308859417256,0.0132228527384,-0.0411372371018,-0.00642645172775,0.0164600759745,0.0279055833817,0.0783925279975,-9.84937381744
321,1348765044,369101047,1348765044,368825912,0.403268871774,0.914468223154,0.0308021972039,0.0131647463867,-0.0372494086623,0.00226946896873,0.00765229575336,0.0254736822098,0.0807989090681,-9.84710407257
322,1348765044,380029916,1348765044,379781007,0.403270978081,0.914463415965,0.0309093845321,0.0131829073513,-0.0316159613431,0.00386621640064,-0.00120881595649,0.0230032112449,0.080849647522,-9.85455036163
323,1348765044,389180898,1348765044,388832092,0.403326259237,0.91444076432,0.0308746902986,0.0131442253163,-0.0479554980993,0.00241576437838,0.0147068910301,0.0278332494199,0.078508362174,-9.8639755249
324,1348765044,400146007,1348765044,399857997,0.403296472885,0.914445420209,0.0310894625207,0.0132277639313,-0.0469774715602,0.00205829832703,-0.00312266405672,0.0230128653347,0.0784167796373,-9.8545331955
325,1348765044,409110069,1348765044,408771991,0.403213298415,0.91448480211,0.0310328876108,0.0131735560072,-0.0428670160472,0.00447543803602,-0.0155626581982,0.032766982913,0.0711661949754,-9.85633087158
326,1348765044,420228004,1348765044,419859886,0.403211577342,0.914479833705,0.0311849868201,0.0132118976904,-0.0402533225715,0.00211332482286,-0.000399937678594,0.0278211943805,0.0785276666284,-9.86640930176
327,1348765044,429223060,1348765044,428783893,0.403224950902,0.914475486173,0.0311714613885,0.0131363675613,-0.0492177158594,0.0111104650423,0.00586094148457,0.023046631366,0.0759452953935,-9.84964847565
328,1348765044,440119028,1348765044,439765930,0.403240641468,0.914463620423,0.0312998970815,0.0131752963664,-0.0368790887296,0.00567903928459,0.000553217134438,0.0278428569436,0.0881626233459,-9.85431098938
329,1348765044,449019908,1348765044,448760986,0.403230717658,0.914468096607,0.0312872254368,0.0131984146856,-0.0574413202703,-0.00673859193921,0.000276024249615,0.0425644740462,0.0710983872414,-9.84358024597
330,1348765044,460216999,1348765044,459836006,0.403301666947,0.914429990245,0.0314728008803,0.0132295571616,-0.041247420013,0.00779056642205,0.0174857918173,0.0278814267367,0.0905182734132,-9.84459495544
331,1348765044,469099044,1348765044,468775987,0.403349937562,0.914409365171,0.0314337897712,0.0132762048981,-0.0546675398946,-0.0135979903862,0.0127366092056,0.0180959906429,0.0905667692423,-9.8549118042
332,1348765044,480099916,1348765044,479775905,0.403315545303,0.914419799328,0.0315628657392,0.0132961280144,-0.0370739921927,0.0107515743002,-0.0118831871077,0.0181635208428,0.0856238007545,-9.84514331818
333,1348765044,489165067,1348765044,488815069,0.403304934674,0.91442744381,0.0315180134965,0.0131982764133,-0.0420566163957,0.0127805713564,0.00057379930513,0.0328079536557,0.0759354010224,-9.84419822693
334,1348765044,500075101,1348765044,499849081,0.403334789921,0.914408076668,0.0316737748283,0.0132547557796,-0.0414459519088,0.00134196213912,0.00583963748068,0.0133021203801,0.0928501412272,-9.83818626404
335,1348765044,509057998,1348765044,508779048,0.403360108495,0.91440121656,0.0315523688557,0.0132471147274,-0.0354831293225,-0.0101524675265,0.00754626188427,0.0278380997479,0.0712483599782,-9.86878967285
336,1348765044,520267963,1348765044,519884109,0.403349245183,0.914397905513,0.0317415368125,0.0133540871665,-0.047096516937,-0.00498677697033,-0.000515740131959,0.0229694936424,0.0712339952588,-9.86908149719
337,1348765044,529105901,1348765044,528778076,0.403363743966,0.914392939863,0.0317109355192,0.0133288465653,-0.0508889593184,0.000460301351268,0.0057495594956,0.0230900496244,0.0710409358144,-9.84474658966
338,1348765044,540107965,1348765044,539782047,0.403401368359,0.914371144007,0.0318157910797,0.0134351200882,-0.0371071211994,-0.010188956745,0.00575697142631,0.0278187468648,0.0882012322545,-9.85917854309
339,1348765044,549107074,1348765044,548784971,0.403457672081,0.914348824211,0.0317493967098,0.0134205182803,-0.0453480891883,-0.00469019729644,0.014672244899,0.0181249063462,0.0953552871943,-9.8452129364
340,1348765044,560343027,1348765044,559820890,0.40350879482,0.914319919151,0.0319179004417,0.013453088072,-0.0426896102726,0.00060169538483,0.0129487812519,0.0279248449951,0.0856139138341,-9.83969306946
341,1348765044,569046020,1348765044,568775892,0.403575859216,0.914296926181,0.031744294087,0.0134147838703,-0.0239372458309,-0.00909121148288,0.0165601056069,0.0328224115074,0.0783296599984,-9.83934879303
342,1348765044,580051898,1348765044,579773902,0.403573861981,0.914290526308,0.0318873685892,0.0135708199026,-0.0436556190252,-0.017396889627,0.000293717690511,0.0230080150068,0.0856767743826,-9.84971809387
343,1348765044,589173078,1348765044,588833093,0.403590073246,0.914288780873,0.0317641972835,0.0134949515978,-0.030281001702,0.00223012594506,0.0059255422093,0.0156930498779,0.0856745392084,-9.85258960724
344,1348765044,600071907,1348765044,599780082,0.403698447128,0.914232516866,0.0319296870133,0.0136734771686,-0.0517004430294,-0.016969146207,0.0216396767646,0.0229911562055,0.0808689519763,-9.85698413849
345,1348765044,609086036,1348765044,608782052,0.40373493025,0.914219082175,0.0318506802944,0.0136788174995,-0.0450874641538,-0.0092152627185,0.0101716797799,0.0180959906429,0.0905667692423,-9.8549118042
346,1348765044,620204925,1348765044,619812965,0.403722312339,0.914219645388,0.0319808310187,0.0137098852329,-0.0333235375583,0.00120400253218,-0.00124571821652,0.0230032112449,0.080849647522,-9.85455036163
347,1348765044,629136085,1348765044,628824949,0.40372079175,0.914223238224,0.0319179141216,0.0136616162289,-0.0438272282481,0.00216232123785,0.00225271238014,0.0230972543359,0.0782816335559,-9.83749866486
348,1348765044,640089988,1348765044,639791965,0.403765471501,0.914198609167,0.0320267014321,0.0137345337154,-0.0338729135692,-0.00656999833882,0.00937785767019,0.025468878448,0.0759717822075,-9.85193634033
349,1348765044,650918960,1348765044,648806095,0.403788717355,0.914191582481,0.0319550895136,0.0136855585319,-0.0424000844359,0.00138492987026,0.00759869720787,0.0254665222019,0.0614710822701,-9.86399841309
350,1348765044,660341978,1348765044,659913063,0.403850908527,0.914159488786,0.0320494261831,0.013773417337,-0.0322556942701,-0.00565030053258,0.0111869676039,0.0181707721204,0.0807773694396,-9.84754180908
351,1348765044,669142007,1348765044,668809890,0.403882458832,0.914149462627,0.0319619643077,0.0137168605813,-0.0390574112535,0.00141739088576,0.00941045768559,0.0230852458626,0.0662138089538,-9.84957885742
352,1348765044,680140018,1348765044,679810047,0.40391746968,0.914127940971,0.0321149479606,0.0137628245963,-0.0447926856577,0.00397516321391,0.00404166057706,0.025500241667,0.0710867270827,-9.84946727753
353,1348765044,689299106,1348765044,688798904,0.403867874937,0.914151082268,0.0320620776888,0.013804403545,-0.0534934923053,-0.0131343593821,-0.00866391509771,0.0230514798313,0.0686852931976,-9.8544626236
354,1348765044,700350999,1348765044,699939966,0.40387445355,0.9141415307,0.0322234237338,0.0138686185936,-0.0404761508107,-0.00312469061464,0.00401437608525,0.0253844428807,0.0881940573454,-9.85932445526
355,1348765044,709152936,1348765044,708767890,0.403922307643,0.914123372105,0.0321503792083,0.0138413538164,-0.0443908013403,-0.00294601870701,0.0128979766741,0.0328200086951,0.0759160965681,-9.84176445007
356,1348765044,720146894,1348765044,719743013,0.403900689595,0.914129871553,0.0322257375667,0.0138676860809,-0.0261505302042,0.000213250226807,-0.00656020827591,0.0376427955925,0.0784212499857,-9.84879112244
357,1348765044,729113101,1348765044,728780031,0.403869572788,0.914150607943,0.0320480905604,0.0138186129861,-0.0236332621425,-0.00685097184032,-0.00482915481552,0.0426078923047,0.0661940276623,-9.83867835999
358,1348765044,740132093,1348765044,739784955,0.403923936086,0.91412075136,0.0321701743534,0.0139206922237,-0.0373986512423,-0.00831319205463,0.011124256067,0.0133190723136,0.07348369807,-9.85021400452
359,1348765044,749150037,1348765044,748819112,0.403986716158,0.914097283196,0.032101839928,0.0137971697875,-0.0377847068012,0.0148698687553,0.0166803728789,0.0182069856673,0.0686323195696,-9.8498878479
360,1348765044,760179996,1348765044,759898900,0.403998301865,0.914085309595,0.0322644841589,0.013871623333,-0.0421907044947,-0.00312623986974,0.00400225631893,0.0230080150068,0.0856767743826,-9.84971809387
361,1348765044,769053936,1348765044,768790006,0.40403591866,0.914072374838,0.0322164864751,0.0137392863612,-0.0409459546208,0.0183133240789,0.0113416146487,0.0181924812496,0.0783251896501,-9.84509086609
362,1348765044,780019998,1348765044,779779911,0.404127127699,0.914026298558,0.0323407767896,0.0138298358224,-0.0378040373325,-0.00461650360376,0.0182838160545,0.0279152374715,0.0759596526623,-9.84935665131
363,1348765044,788361072,1348765044,787893056,0.404166657993,0.914011130701,0.0322821792537,0.0138139937546,-0.048591863364,-0.00387023901567,0.0110808806494,0.0230032112449,0.080849647522,-9.85455036163
364,1348765044,800273895,1348765044,799943923,0.404182962058,0.913999496456,0.0323960596395,0.0138401220712,-0.0335172750056,0.00216146511957,0.00232730573043,0.0230707414448,0.0759066790342,-9.84478092194
365,1348765044,809109926,1348765044,808779954,0.404182195007,0.914003097145,0.0323157234833,0.0138125184179,-0.0438083559275,-0.00316291186027,0.00220504961908,0.0181780233979,0.0759309306741,-9.84994029999
366,1348765044,820234060,1348765044,819953918,0.404197797305,0.91398746788,0.0325253604108,0.0138978466613,-0.0491854436696,0.000460214767372,0.00577264372259,0.018028460443,0.09550973773,-9.8646812439
367,1348765044,829195022,1348765044,828823089,0.404265421896,0.913960513936,0.0324646990509,0.0138452497324,-0.0455241240561,0.00246606767178,0.0174056943506,0.0229718498886,0.0857346951962,-9.85701847076
368,1348765044,840053081,1348765044,839772939,0.404295895556,0.91394122095,0.0326126998922,0.0138811127205,-0.0387897901237,0.00752477440983,0.00411541294307,0.0279659070075,0.0662088617682,-9.84685325623
369,1348765044,849385023,1348765044,848978042,0.404343792595,0.913922599841,0.0325469573743,0.0138663064896,-0.0478253811598,-0.0047188620083,0.0128560941666,0.0327476747334,0.0760319307446,-9.85636615753
370,1348765044,860129117,1348765044,859821081,0.404363449705,0.913911864262,0.0325808043393,0.0139210664662,-0.0197737589478,-0.00935658067465,0.00321183004417,0.0327524803579,0.0808590650558,-9.85153388977
371,1348765044,869083881,1348765044,868782997,0.404321248598,0.91393496311,0.0324933391512,0.0138345237468,-0.0382024385035,0.0073127001524,-0.00658575305715,0.0328706800938,0.0661653056741,-9.83926105499
372,1348765044,880076885,1348765044,879786014,0.404352514982,0.913913592917,0.0326664865293,0.0139244018876,-0.0449558869004,-0.00305516109802,0.00754365930334,0.0230997037143,0.0686080679297,-9.84472846985
373,1348765044,889199018,1348765044,888823032,0.404335096103,0.913924077649,0.0325978869879,0.0139028096737,-0.0470540076494,-0.00323344091885,-0.00138303427957,0.0181394089013,0.0856624171138,-9.85000991821
374,1348765044,900032043,1348765044,899777889,0.404440816667,0.91387254656,0.0327165705663,0.0139363003879,-0.0345893315971,0.000773286039475,0.0219378173351,0.0132563002408,0.0953409299254,-9.84550476074
375,1348765044,909051895,1348765044,908798933,0.40445113818,0.913875420728,0.0325246732738,0.0138974041716,-0.0232528150082,-0.0102297468111,0.0040737837553,0.023061087355,0.0783395543694,-9.84479904175
376,1348765044,920233011,1348765044,919882059,0.404518457557,0.913839074485,0.032672935382,0.0139800834371,-0.0427661314607,-0.00646775914356,0.01467902679,0.00833947118372,0.0954037904739,-9.85552978516
377,1348765044,932574987,1348765044,932272911,0.404533824269,0.913835034413,0.0326019556095,0.0139652207618,-0.0474334545434,-0.004867576994,0.00573389185593,0.0181876327842,0.0855851918459,-9.84027576447
378,1348765044,940171957,1348765044,939837932,0.404544261785,0.913823539381,0.0327752695875,0.014009312426,-0.040506798774,0.00486119603738,0.00408854149282,0.0229863058776,0.0881289541721,-9.85216903687
379,1348765044,949038982,1348765044,948821067,0.404566405487,0.913815488631,0.0327423565337,0.0139719139068,-0.0527182295918,0.00227092322893,0.00754075217992,0.0205809641629,0.080823160708,-9.85226249695
380,1348765044,960287094,1348765044,959897041,0.404605893569,0.913790891233,0.0328914647981,0.0140865017561,-0.0441269055009,-0.0101393880323,0.00838693510741,0.0132225807756,0.0857252776623,-9.8600358963
381,1348765044,969057083,1348765044,968801975,0.404647083006,0.913776456597,0.0327831366672,0.0140922508475,-0.0425406247377,-0.0118581643328,0.0110503211617,0.0279200412333,0.0807867869735,-9.84452438354
382,1348765044,980088949,1348765044,979840993,0.404668834467,0.913761110903,0.0328908541478,0.0142112042278,-0.0403733216226,-0.0155675141141,0.00300593534485,0.0229742974043,0.07606112957,-9.86424922943
383,1348765044,989231109,1348765044,988872051,0.404704810514,0.913747999782,0.0328159572488,0.0142028937791,-0.047682646662,-0.00654862169176,0.0101742567495,0.0228681527078,0.0907355844975,-9.87408828735
384,1348765045,129938,1348765044,999833106,0.404795490236,0.913700997764,0.0329806983929,0.0142608310521,-0.0397047996521,0.00253951619379,0.0210118424147,0.0326970033348,0.0857827290893,-9.85886955261
385,1348765045,9113073,1348765045,8779048,0.40479289784,0.913704391362,0.0329432216439,0.0142034929327,-0.0507232584059,0.00571692269295,0.00223188358359,0.0254206564277,0.0760490074754,-9.86167049408
386,1348765045,20298957,1348765045,19879102,0.404832566942,0.913679796643,0.033121596725,0.0142401467863,-0.0416711382568,0.00762789556757,0.00945935584605,0.0132225807756,0.0857252776623,-9.8600358963
387,1348765045,29067993,1348765045,28784990,0.40486578419,0.913670697708,0.0329838175616,0.014199321163,-0.0338750481606,-0.00568543514237,0.00938936509192,0.0181900803,0.0759116262197,-9.84750652313
388,1348765045,39011001,1348765045,38760900,0.404947717797,0.913627785702,0.0331416600771,0.0142564165121,-0.0428129211068,0.00596118019894,0.0147816250101,0.0181201472878,0.0784410238266,-9.85969161987
389,1348765045,48029899,1348765045,47777891,0.404962072261,0.913625715037,0.0330642115151,0.0141608887611,-0.0406176410615,0.00933346897364,0.00590977584943,0.0230514351279,0.0807724222541,-9.84481620789
390,1348765045,59207916,1348765045,58816909,0.405002445193,0.91359900914,0.0332775247146,0.0142294144557,-0.0528549142182,0.000546954281162,0.0102026127279,0.0181876327842,0.0855851918459,-9.84027576447
391,1348765045,68145036,1348765045,67776918,0.405059729152,0.913576567478,0.0331868247688,0.0142515204954,-0.0478872433305,-0.0135635016486,0.0145667269826,0.0181346051395,0.0808352828026,-9.85484218597
392,1348765045,79134941,1348765045,78810930,0.405050516869,0.913576349381,0.0332601688616,0.0143559675052,-0.0331141464412,-0.0157117582858,-0.00407082214952,0.0180429648608,0.0858168676496,-9.86947822571
393,1348765045,88304042,1348765045,87882995,0.405018426185,0.913596118799,0.0331249271411,0.0143159131188,-0.0348233245313,-0.00508483778685,-0.00487201893702,0.00594378309324,0.0856651216745,-9.8556060791
394,1348765045,99051952,1348765045,98793029,0.404966442039,0.913608822008,0.033327024684,0.0145055367898,-0.0601573549211,-0.0176413748413,-0.01231691055,0.0279007330537,0.0856525301933,-9.84455966949
395,1348765045,108071088,1348765045,107795953,0.404958931639,0.913618366489,0.0331790807571,0.0144531207849,-0.031677082181,-0.00408464996144,0.000497733592056,0.0279152374715,0.0759596526623,-9.84935665131
396,1348765045,119151115,1348765045,118798971,0.405015469863,0.913588092251,0.0333265505324,0.0144432648229,-0.0308838430792,0.00776646472514,0.016672860831,0.0133142219856,0.0807437002659,-9.84539985657
397,1348765045,128068923,1348765045,127779006,0.405020992241,0.913590697045,0.0331826682113,0.0144549177595,-0.0377922430634,-0.0155673949048,0.00302299205214,0.02789112553,0.0759982690215,-9.85422420502
398,1348765045,139107942,1348765045,138823032,0.405091342056,0.913553726347,0.0332964979185,0.0145580525956,-0.0392050035298,-0.0100503163412,0.0128754954785,0.0230948533863,0.0758680701256,-9.8399143219
399,1348765045,148133039,1348765045,147804975,0.405113867663,0.913546526032,0.033239037015,0.0145143177489,-0.0492762252688,0.00138779554982,0.00754867400974,0.0327549278736,0.0711854994297,-9.85876464844
400,1348765045,159363031,1348765045,158796072,0.405139339569,0.913531655694,0.0333180888153,0.014557971556,-0.0283489972353,0.000385822175303,0.00234363344498,0.023128664121,0.0613094531,-9.84467601776
401,1348765045,168128967,1348765045,167792081,0.405166150455,0.913527039135,0.0331288331374,0.0145333998142,-0.0268716197461,-0.0128239169717,0.0075941584073,0.015794346109,0.0782600939274,-9.83793544769
402,1348765045,179064035,1348765045,178734064,0.405142922764,0.913530024239,0.033250579255,0.0147141403914,-0.0417090654373,-0.0245657898486,-0.00333249173127,0.0279104337096,0.0711325258017,-9.85418891907
403,1348765045,189125061,1348765045,188781023,0.405159877521,0.913527781541,0.0331160229837,0.0146899633294,-0.0371070168912,-0.00841806270182,0.00577336223796,0.0181780233979,0.0759309306741,-9.84994029999
404,1348765045,199059009,1348765045,198776960,0.405207547519,0.913499610912,0.0332994471635,0.0147122777095,-0.042631842196,0.00944205280393,0.0112453782931,0.025437515229,0.0808568298817,-9.85440444946
405,1348765045,207988977,1348765045,207715988,0.405221086741,0.913497228562,0.033177838846,0.0147619537833,-0.0456089861691,-0.0208582431078,0.00471030408517,0.018059823662,0.0906246900558,-9.86221218109
406,1348765045,219130039,1348765045,218772888,0.405212414771,0.913495558484,0.0333083656364,0.0148093323498,-0.0366670228541,0.00205598608591,-0.00304413260892,0.0230080150068,0.0856767743826,-9.84971809387
407,1348765045,228239059,1348765045,227791070,0.405267012585,0.913476229611,0.0332307929394,0.0146813094727,-0.0394052453339,0.0148327089846,0.0148886116222,0.0157919432968,0.0758465230465,-9.84035205841
408,1348765045,239264011,1348765045,238795042,0.405298499338,0.913454806345,0.0333870862925,0.0147900530376,-0.0457074791193,-0.00664626574144,0.0057338248007,0.00601131329313,0.0807221531868,-9.8458366394
409,1348765045,248104095,1348765045,247771978,0.405366911482,0.913426968549,0.033317646253,0.0147910327879,-0.0514912195504,-0.00818665698171,0.0172680336982,0.0157292168587,0.0856166258454,-9.84528923035
410,1348765045,259161949,1348765045,258821964,0.405442533967,0.913383107767,0.0335456812753,0.0149109813569,-0.0599607490003,-0.00291642569937,0.0145829748362,0.00597995007411,0.0856072083116,-9.84830570221
411,1348765045,268100976,1348765045,267812967,0.405450752218,0.913383378332,0.0334394908354,0.0149094656296,-0.0447343029082,-0.0102259982377,0.0039160088636,0.0255098491907,0.0807409882545,-9.83980369568
412,1348765045,279139041,1348765045,278860092,0.405479876951,0.91336525195,0.0335769868749,0.0149188428003,-0.0338330343366,0.00581707013771,0.00771831395105,0.0205374993384,0.0978146493435,-9.84751796722
413,1348765045,288291931,1348765045,287888050,0.405515440921,0.913351794427,0.0335149999775,0.0149154808082,-0.0528266392648,-0.00654750876129,0.0101275639609,0.0278863217682,0.0711711347103,-9.8590555191
414,1348765045,299225091,1348765045,298860073,0.405546782353,0.913331456978,0.0336724781249,0.0149539705601,-0.0406859368086,0.00226836791262,0.00763015309349,0.0230562388897,0.0855995565653,-9.83998394012
415,1348765045,308401107,1348765045,308151006,0.405613992389,0.913308753365,0.0334912846346,0.0149246125191,-0.029081037268,-0.0117496270686,0.0164927300066,0.0425692759454,0.075925514102,-9.83874797821
416,1348765045,319067955,1348765045,318758964,0.405659175414,0.913282045497,0.0336366725544,0.0150037673838,-0.0407667532563,-0.00301548396237,0.00935798045248,0.032704256475,0.0809362903237,-9.86126804352
417,1348765045,328087091,1348765045,327786922,0.405675740846,0.913279212546,0.033520952861,0.0149872926136,-0.0422719419003,-0.00841689202935,0.00574155338109,0.0156255215406,0.0906175076962,-9.86235809326
418,1348765045,339226007,1348765045,338876962,0.405794627282,0.913222125395,0.0336021541563,0.0150653706752,-0.0295824632049,-0.00979629717767,0.02542819269,0.0424824394286,0.0857342258096,-9.84855175018
419,1348765045,348104953,1348765045,347824096,0.405795071287,0.913227205859,0.0334725890465,0.0150338411842,-0.0386429019272,-0.00670853909105,0.0022074135486,0.0327211171389,0.08574411273,-9.8540019989
420,1348765045,359239101,1348765045,358822107,0.405797696264,0.913219203274,0.0336330005472,0.0150909825263,-0.0403849296272,0.000386850093491,0.00226080976427,0.0181852765381,0.0710844919086,-9.85233879089
421,1348765045,368021011,1348765045,367780923,0.405806740697,0.913220829008,0.0334900075301,0.015067384188,-0.0370066910982,-0.00933947134763,0.00398078002036,0.0230369772762,0.0783781632781,-9.84966564178
422,1348765045,379029989,1348765045,378798007,0.405880766779,0.913181368684,0.0336434470911,0.0151231450055,-0.0410472229123,0.00594499334693,0.0139012830332,0.0229670442641,0.0809075683355,-9.86185073853
423,1348765045,388191938,1348765045,387857913,0.405856623506,0.913198547381,0.0335015291393,0.015048646578,-0.0332199446857,0.000279724888969,-0.00303666782565,0.0206026732922,0.0783709809184,-9.84981155396
424,1348765045,399111986,1348765045,398818016,0.40590492862,0.913172513059,0.0336106302865,0.0150823024368,-0.0313756018877,0.00054409558652,0.0103583531454,0.0132611962035,0.0759937912226,-9.8599653244
425,1348765045,408173084,1348765045,407783985,0.405939967377,0.91315981425,0.0335512317567,0.0150403248388,-0.0511369258165,0.000547031115275,0.0102133452892,0.0157340671867,0.0783566236496,-9.8501033783
426,1348765045,419127941,1348765045,418802022,0.40600156056,0.913126552849,0.0336857042576,0.0150965106701,-0.0342817306519,-0.00287765217945,0.0165455695242,0.0254158060998,0.0833090022206,-9.85685539246
427,1348765045,428179025,1348765045,427819013,0.4060425015,0.913113679739,0.0335618644858,0.0150497874304,-0.0391346625984,-0.00387378549203,0.0111490478739,0.0181973315775,0.0710651874542,-9.84990501404
428,1348765045,439047098,1348765045,438802957,0.406051194752,0.913105101453,0.0336328693225,0.0151766611225,-0.0341503843665,-0.0191895160824,-0.000546905735973,0.0229549892247,0.0809268727899,-9.86428451538
429,1348765045,448052883,1348765045,447837114,0.40610739554,0.913084733721,0.0335345325718,0.0151158016334,-0.0427846424282,0.000633770483546,0.0147346286103,0.0182189941406,0.0807001441717,-9.83780765533
430,1348765045,459132909,1348765045,458803892,0.40608394919,0.913087069443,0.0336944198333,0.0152484720354,-0.046749856323,-0.00688661588356,-0.0067694298923,0.0229549892247,0.0809268727899,-9.86428451538
431,1348765045,468069076,1348765045,467783927,0.406132135048,0.91307032942,0.0335947641366,0.0151873051415,-0.0426926538348,0.000602550862823,0.0129476338625,0.025437515229,0.0808568298817,-9.85440444946
432,1348765045,479166984,1348765045,478843927,0.406167051958,0.913048035713,0.0337410583469,0.0152692948984,-0.0407528541982,-0.00656440947205,0.00932443886995,0.035126503557,0.0809627771378,-9.86355495453
433,1348765045,488192081,1348765045,487793922,0.406200241719,0.913039080296,0.0336049360705,0.0152220153175,-0.037316057831,-0.00479957275093,0.0093763275072,0.0133262779564,0.0807243958116,-9.84296607971
434,1348765045,499037027,1348765045,498780965,0.406316566605,0.912981461867,0.0337172973435,0.0153245505537,-0.0397029593587,-0.00809685699642,0.0218074005097,0.023046631366,0.0759452953935,-9.84964847565
435,1348765045,508066892,1348765045,507829904,0.406339483843,0.912976436211,0.0336246950996,0.0152194176359,-0.0407166369259,0.00936686992645,0.00769524415955,0.0132853072137,0.0759551823139,-9.85509872437
436,1348765045,519171953,1348765045,518802881,0.406318402002,0.912978484039,0.0337804569062,0.015314196253,-0.0443187430501,-0.00683880830184,-0.00406555784866,0.0132321892306,0.0953795388341,-9.85037136078
437,1348765045,528203964,1348765045,527877092,0.406335728996,0.912977209569,0.0336299958172,0.0152615048703,-0.0345522351563,-0.00486922822893,0.00583187816665,0.0132032735273,0.0905910208821,-9.86007022858
438,1348765045,539086103,1348765045,538790941,0.40632303656,0.912976216754,0.033786103404,0.0153139419787,-0.0401940308511,0.000318222766509,-0.00130621762946,0.0229984074831,0.0760225132108,-9.85938262939
439,1348765045,548151016,1348765045,547738075,0.406348362948,0.912971221559,0.0336395982947,0.0152621741732,-0.0355053655803,-0.00482546444982,0.00759434467182,0.0375849194825,0.0809313431382,-9.85854244232
440,1348765045,559295892,1348765045,558790922,0.406367646532,0.912955831445,0.033768461997,0.0153842990501,-0.0421914570034,-0.0155346114188,0.00478433538228,0.0180959906429,0.0905667692423,-9.8549118042
441,1348765045,568027973,1348765045,567779064,0.406404863673,0.912945020937,0.0336340727101,0.0153370362849,-0.0382277220488,-0.00477757258341,0.0102552045137,0.0181249976158,0.0711810216308,-9.86450576782
442,1348765045,579020023,1348765045,578777074,0.406450129133,0.912918997951,0.0337679668704,0.0153922097507,-0.0356688797474,0.000549550284632,0.0103203458712,0.0327886454761,0.0808011442423,-9.84423351288
443,1348765045,588155031,1348765045,587871074,0.406441426554,0.912927381037,0.0336716733957,0.0153356494462,-0.0445867143571,0.000351080438122,0.000451626518043,0.0181635208428,0.0856238007545,-9.84514331818
444,1348765045,599196910,1348765045,598915100,0.406473412494,0.912908493563,0.0337616814125,0.0154141553026,-0.0311058666557,-0.00663831084967,0.0058304509148,0.0326970033348,0.0857827290893,-9.85886955261
445,1348765045,608108043,1348765045,607825040,0.4065044211,0.912897905484,0.0336992702554,0.0153599795693,-0.0510998368263,0.00230492581613,0.00934129580855,0.0181201025844,0.0905281603336,-9.85004520416
446,1348765045,619169950,1348765045,618818998,0.406506668199,0.91288858691,0.0338643040016,0.0154908202939,-0.0479726567864,-0.0102926716208,0.000313683558488,0.0328417643905,0.0613767877221,-9.84895992279
447,1348765045,628159046,1348765045,627883911,0.406490639276,0.912902258948,0.0337264809925,0.0154061762995,-0.0350375883281,0.00208871765062,-0.00125117355492,0.0182455535978,0.0709879621863,-9.84017086029
448,1348765045,638983964,1348765045,638736009,0.406587706848,0.912851036128,0.0339019072431,0.0154946172884,-0.0499351136386,-0.00458239391446,0.0199865959585,0.0181394089013,0.0856624171138,-9.85000991821
449,1348765045,648004055,1348765045,647769927,0.406640461869,0.912832892165,0.0337889010225,0.0154258198975,-0.0410127788782,0.000621818995569,0.0138426218182,0.0353049822152,0.0661724880338,-9.83911514282
450,1348765045,659111022,1348765045,658772945,0.406683335846,0.912805678058,0.033955036377,0.015540719277,-0.0443641319871,-0.0100522134453,0.0128436172381,0.0133142219856,0.0807437002659,-9.84539985657
451,1348765045,668108940,1348765045,667782068,0.406765686216,0.912774829797,0.0338172925992,0.0154976555681,-0.0387566164136,-0.00635321671143,0.0200420431793,0.032735619694,0.0760512426496,-9.85879898071
452,1348765045,679060935,1348765045,678780078,0.406811241636,0.912748970396,0.0339262392726,0.015586564994,-0.0371721684933,-0.00485039548948,0.00669912202284,0.018158717081,0.0807966738939,-9.84997463226
453,1348765045,688256025,1348765045,687869071,0.406892849099,0.912715835437,0.0338393812915,0.0155855499657,-0.0516300983727,-0.00990763306618,0.0199255626649,0.0181635208428,0.0856238007545,-9.84514331818
454,1348765045,699222087,1348765045,698856115,0.407043180579,0.912642353203,0.0339557773287,0.0157095343681,-0.0393544919789,-0.0132257090881,0.0315689519048,0.0279586557299,0.0710553005338,-9.84445476532
455,1348765045,708102941,1348765045,707860946,0.407080577721,0.912632588888,0.0338081112589,0.0156260217003,-0.0339544899762,0.000546795432456,0.0103388642892,0.0229959599674,0.0856960862875,-9.85215187073
456,1348765045,719106912,1348765045,718770027,0.407128958077,0.912605389333,0.0339025248174,0.0157490846227,-0.0372626595199,-0.0172195807099,0.00925289094448,0.0255098938942,0.0686538591981,-9.84945011139
457,1348765045,728123903,1348765045,727791070,0.407184630011,0.912583584973,0.0338421805695,0.0157030039907,-0.053106572479,0.000638307537884,0.0146598638967,0.0180670749396,0.0857782512903,-9.864610672
458,1348765045,739104986,1348765045,738806009,0.407219326344,0.91255957083,0.0340159230015,0.01582298711,-0.0508645959198,-0.00664189318195,0.00569062586874,0.0132853072137,0.0759551823139,-9.85509872437
459,1348765045,748219013,1348765045,747822999,0.407243992326,0.912552762582,0.0339141108711,0.0157993449965,-0.047526743263,-0.00660443026572,0.0074984296225,0.0230080150068,0.0856767743826,-9.84971809387
460,1348765045,759208917,1348765045,758812904,0.40722534591,0.912554744874,0.0340861856581,0.015795163916,-0.0401470884681,0.0118176257238,-0.00297645083629,0.0181080456823,0.090547464788,-9.85247802734
461,1348765045,768126010,1348765045,767878055,0.407316288042,0.912516133475,0.0340618841756,0.015733266977,-0.0587154589593,0.00612159632146,0.0226920526475,0.0132925584912,0.0711087435484,-9.85749721527
462,1348765045,779052019,1348765045,778776884,0.407314674734,0.912508213003,0.0342531620126,0.015818907678,-0.0472995005548,-0.00314640835859,0.00307892682031,0.0132514964789,0.0905137956142,-9.8503370285
463,1348765045,788285017,1348765045,787894964,0.407308220847,0.912515270241,0.0341292820704,0.0158457222256,-0.0479461029172,-0.0173949543387,0.000255700375419,0.0279490016401,0.0734881684184,-9.84447193146
464,1348765045,799107074,1348765045,798777103,0.407282001643,0.912520979598,0.034253545762,0.0159225479806,-0.0381612889469,-0.00422485265881,-0.00668748375028,0.0279104337096,0.0711325258017,-9.85418891907
465,1348765045,808082103,1348765045,807779073,0.407330911329,0.912502705611,0.0341655729385,0.015907688543,-0.0512537658215,-0.0073794038035,0.012804415077,0.0327067039907,0.0712627246976,-9.86849784851
466,1348765045,819220066,1348765045,818856000,0.407403398589,0.912461446734,0.0343512399101,0.0160178450097,-0.0513596571982,-0.00468988576904,0.0146256070584,0.0157292168587,0.0856166258454,-9.84528923035
467,1348765045,828146934,1348765045,827898979,0.40741257482,0.912464637983,0.0341970384135,0.0159323844035,-0.0336033664644,0.000421721779276,0.00409264629707,0.0255629215389,0.0734037682414,-9.83488368988
468,1348765045,839066982,1348765045,838800907,0.407462154793,0.912435942528,0.0343255873117,0.0160311337733,-0.039896517992,-0.00657114991918,0.00934392120689,0.0180646274239,0.0954518169165,-9.857380867
469,1348765045,848028898,1348765045,847774028,0.407437312964,0.912453022258,0.0342142723399,0.0159280176151,-0.0401300005615,0.00738345831633,-0.00302311149426,0.0229429341853,0.0809461772442,-9.86671829224
470,1348765045,859147071,1348765045,858815908,0.407433898138,0.912446336991,0.0344097806868,0.015977100875,-0.0471881367266,0.00567862344906,0.000478941714391,0.0230080150068,0.0856767743826,-9.84971809387
471,1348765045,868138074,1348765045,867813110,0.407458501185,0.912440883435,0.0342950458206,0.0159076673541,-0.0424028858542,0.000497820496093,0.00759936403483,0.0327162668109,0.0930041149259,-9.84918785095
472,1348765045,879082918,1348765045,878789901,0.407515812097,0.912409338295,0.0344315790108,0.0159539540858,-0.0342054665089,0.000638890138362,0.0147959487513,0.0277608707547,0.0907113328576,-9.86892986298
473,1348765045,888232946,1348765045,887926101,0.407516810983,0.9124163033,0.0342785913721,0.015859268967,-0.0335188768804,0.00216119457036,0.00232824147679,0.020612327382,0.0759381130338,-9.84979438782
474,1348765045,899070024,1348765045,898781061,0.407561101069,0.912389107992,0.0344511134574,0.0159117973392,-0.0443139076233,0.00056595436763,0.0111548313871,0.0230080150068,0.0856767743826,-9.84971809387
475,1348765045,908061981,1348765045,907824039,0.407562434906,0.912396489621,0.0342856673305,0.0158114008616,-0.0309424139559,0.00216350215487,0.00234291283414,0.0254520177841,0.0711639523506,-9.85920143127
476,1348765045,919051885,1348765045,918811082,0.407614941197,0.912365214923,0.0344284988119,0.0159515761384,-0.0475463047624,-0.0127974459901,0.00832763593644,0.0279152374715,0.0759596526623,-9.84935665131
477,1348765045,928056001,1348765045,927879095,0.407671235444,0.912345990618,0.034324728233,0.0158357262626,-0.0411041080952,0.00951280351728,0.0148217622191,0.0279272925109,0.075940348208,-9.84692287445
478,1348765045,939079046,1348765045,938767910,0.407768328926,0.912296920402,0.0344126945097,0.0159713933991,-0.0377535745502,-0.0170423127711,0.0181724671274,0.0254712793976,0.0783853456378,-9.84951972961
479,1348765045,952275037,1348765045,951795101,0.407784031596,0.912293813004,0.0343336992081,0.0159178964671,-0.0508922822773,0.000460766779725,0.00575118744746,0.023046631366,0.0759452953935,-9.84964847565
480,1348765045,959225893,1348765045,958786964,0.407717789695,0.912314921939,0.0345192341799,0.0160034260736,-0.0473778992891,-0.00342817674391,-0.0111970370635,0.0181273538619,0.0856817215681,-9.85244369507
481,1348765045,968146085,1348765045,967808008,0.407736217319,0.912313116287,0.034366593277,0.0159653438595,-0.0388305447996,-0.00841257348657,0.00575763126835,0.0327211171389,0.08574411273,-9.8540019989
482,1348765045,979119062,1348765045,978761911,0.407755763076,0.912299093984,0.0344861192602,0.016009633722,-0.0368602611125,0.00212701200508,0.000520494068041,0.0230273231864,0.0808110386133,-9.8496837616
483,1348765045,988198041,1348765045,987829923,0.407777327762,0.912296994086,0.0343315778511,0.0159118919882,-0.0337633788586,0.00225386884995,0.00678170472383,0.0327741876245,0.0784068852663,-9.84908294678
484,1348765045,999068021,1348765045,998783111,0.407807506083,0.91227611764,0.034495827956,0.0159800194214,-0.0448752567172,0.000460406503407,0.00579702528194,0.0328344218433,0.0903974920511,-9.82726860046
485,1348765046,8150100,1348765046,7891893,0.407790681852,0.912288092916,0.0344138041913,0.015902370858,-0.0488040149212,0.00475960737094,-0.00132941291668,0.0376427508891,0.0905083790421,-9.83914470673
486,1348765046,19196987,1348765046,18832921,0.407809624549,0.912270411783,0.0346415491833,0.0159364042676,-0.0493168719113,0.0111490851268,0.00764157716185,0.0327645353973,0.0808397606015,-9.84910011292
487,1348765046,28311967,1348765046,27940988,0.407832420624,0.912266753824,0.0344837354607,0.0159046704916,-0.0388668961823,-0.010170230642,0.00662963511422,0.0327838435769,0.0759740173817,-9.84906482697
488,1348765046,39047002,1348765046,38783073,0.407842772985,0.912255077423,0.0346295672065,0.0159918515374,-0.0421306118369,-0.00669350801036,0.00307990494184,0.0229645967484,0.0905811339617,-9.85461997986
489,1348765046,48026084,1348765046,47785997,0.407868833384,0.912251072334,0.0344698051775,0.0159005757959,-0.033804859966,0.000493407482281,0.00766146508977,0.0230369772762,0.0783781632781,-9.84966564178
490,1348765046,59077978,1348765046,58753013,0.407890656225,0.912232285955,0.0346479854371,0.0160307869648,-0.0524310842156,-0.00846449099481,0.00298034143634,0.0278670135885,0.0760368779302,-9.85909080505
491,1348765046,68120956,1348765046,67817926,0.40799751743,0.912191090981,0.0345136834027,0.0159450607648,-0.0390787608922,0.000850416254252,0.0254624467343,0.0278766229749,0.085691139102,-9.84942626953
492,1348765046,79107999,1348765046,78820943,0.407965036917,0.91219880834,0.0346660567461,0.0160039753152,-0.0399124957621,0.00198103953153,-0.00662847142667,0.00591967208311,0.0857037380338,-9.86047267914
493,1348765046,88308095,1348765046,87886095,0.407960137053,0.912208248885,0.0344883368281,0.0159747258407,-0.0359361022711,-0.0120709715411,0.000387921114452,0.0279611032456,0.0613817349076,-9.85168552399
494,1348765046,99092006,1348765046,98800897,0.407966594365,0.912198586188,0.0346180372179,0.0160806946018,-0.0411963053048,-0.0120365126058,0.00214256113395,0.023015268147,0.0808303430676,-9.85211658478
495,1348765046,108098030,1348765046,107830047,0.408054072372,0.912165609239,0.0344742734925,0.016040567636,-0.0413776822388,-0.00811251997948,0.0209035705775,0.0254134032875,0.0808954387903,-9.85927200317
496,1348765046,119216918,1348765046,118796110,0.408092456246,0.912143332181,0.034592853226,0.0160755472561,-0.0338143147528,0.00227169552818,0.00767235644162,0.0278622098267,0.0712097510695,-9.86392307281
497,1348765046,128081083,1348765046,127783060,0.408102580835,0.912144462476,0.0344577443502,0.016044530051,-0.0438879020512,-0.00844928622246,0.00393797690049,0.0254254601896,0.080876134336,-9.85683822632
498,1348765046,139086008,1348765046,138782024,0.408178638153,0.912102688091,0.0346296102467,0.0161144601785,-0.0429835133255,0.000709262269083,0.0182963088155,0.0278959292918,0.0808253958821,-9.84939193726
499,1348765046,148075103,1348765046,147759914,0.408186390056,0.912103513404,0.0345508078312,0.0160403705595,-0.0508099421859,0.00398044427857,0.00399195589125,0.0351988822222,0.0687598064542,-9.85860061646
500,1348765046,159241914,1348765046,158863067,0.408242071831,0.912071028344,0.0347065118874,0.0161340656999,-0.0459997951984,-0.00564278708771,0.0110740838572,0.0328224562109,0.066242530942,-9.84899520874
501,1348765046,168042898,1348765046,167778968,0.408261334121,0.912069932577,0.0345314285917,0.0160842031035,-0.035383194685,-0.00841654557735,0.00577846821398,0.0231045521796,0.0613480657339,-9.84954357147
502,1348765046,179029941,1348765046,178770065,0.408292027935,0.912049284257,0.0347030143754,0.0161066385466,-0.0431921482086,0.00933502614498,0.00588704599068,0.0279634594917,0.0758824273944,-9.83962249756
503,1348765046,188241004,1348765046,187871932,0.408324536969,0.912041208466,0.0345923532009,0.0159773486259,-0.040820825845,0.0111822988838,0.00948987994343,0.0327813960612,0.0856475830078,-9.84183502197
504,1348765046,199067115,1348765046,198776960,0.408366031332,0.912018473566,0.034683418981,0.0160171400515,-0.0278343558311,0.000511334801558,0.00859253946692,0.0279586557299,0.0710553005338,-9.84445476532
505,1348765046,208071947,1348765046,207782030,0.408404169479,0.9120069626,0.0345590819308,0.0159688564636,-0.0450982153416,-0.0047783725895,0.0102070402354,0.0181900803,0.0759116262197,-9.84750652313
506,1348765046,219208955,1348765046,218820095,0.408419423421,0.911991253843,0.0347385908522,0.0160859501665,-0.0515315495431,-0.00671150675043,0.0021193716675,0.0181273538619,0.0856817215681,-9.85244369507
507,1348765046,228221893,1348765046,227835893,0.408422264296,0.91199512117,0.034600427285,0.0160923404504,-0.0471992567182,-0.0155885284767,0.00207206886262,0.0132466927171,0.0856866687536,-9.85516834259
508,1348765046,239053010,1348765046,238782882,0.408446955066,0.911975804065,0.0347613060254,0.0162132446356,-0.0474129617214,-0.0101888319477,0.00568082602695,0.0279007330537,0.0856525301933,-9.84455966949
509,1348765046,248075008,1348765046,247845888,0.408497140196,0.911959846284,0.0346283201643,0.0161308604717,-0.0409759432077,0.00060241058236,0.0129628758878,0.0278573147953,0.0905568823218,-9.84946155548
510,1348765046,259119033,1348765046,258778095,0.408464919798,0.911964050565,0.0348277120821,0.0162791351925,-0.0554467253387,-0.0139324208722,-0.00422754138708,0.0328802876174,0.0758195668459,-9.82959747314
511,1348765046,268065929,1348765046,267777919,0.40855670183,0.911928662774,0.0346909964884,0.016250235817,-0.0448533706367,-0.00986291281879,0.0217415373772,0.0424776822329,0.0688199624419,-9.86303043365
512,1348765046,279119968,1348765046,278815031,0.408584120928,0.911909606357,0.034843732608,0.0163033817734,-0.0423074737191,0.000461420306237,0.00581545429304,0.0229308791459,0.0809654816985,-9.86915111542
513,1348765046,288312911,1348765046,287888050,0.4085859867,0.91191695662,0.0346813525785,0.0161913397845,-0.03352612257,0.00394019717351,0.00233899662271,0.0327838435769,0.0759740173817,-9.84906482697
514,1348765046,299069881,1348765046,298782110,0.408594787864,0.911905560814,0.0348269429747,0.0162982063532,-0.0445191003382,-0.00498898560181,-0.000491019454785,0.022983904928,0.0857153907418,-9.85458564758
515,1348765046,308049917,1348765046,307774066,0.408602853557,0.91190652871,0.0347449117058,0.0162167220055,-0.0508186146617,0.0048563783057,0.00402333494276,0.00595339108258,0.0953193828464,-9.84594154358
516,1348765046,319159030,1348765046,318799972,0.408614987112,0.911893762789,0.0348919843254,0.0163127902021,-0.0446559712291,-0.00760013284162,0.00216261041351,0.0156568847597,0.085732460022,-9.85988998413
517,1348765046,328063011,1348765046,327774047,0.408611025517,0.911903774307,0.0346947432526,0.0162730151511,-0.0333632938564,-0.0120709910989,0.000410256645409,0.0278983768076,0.071151830256,-9.85662269592
518,1348765046,339106082,1348765046,338778018,0.408665873143,0.911875455863,0.0347743327891,0.0163126607767,-0.0279639605433,-0.00298157217912,0.0112269073725,0.0377103723586,0.0613911524415,-9.84866905212
519,1348765046,348102092,1348765046,347825050,0.408654528418,0.911888060922,0.0345749781857,0.0163159932342,-0.0366673879325,-0.0200919918716,-0.00147491286043,0.032798346132,0.0662811398506,-9.85386180878
520,1348765046,364195108,1348765046,363897085,0.408643406888,0.911883609809,0.0347809073144,0.0164053849183,-0.0522232688963,0.000323630636558,-0.0013989394065,0.035184379667,0.0784526839852,-9.85380363464
521,1348765046,368021011,1348765046,367772102,0.408694303073,0.91186680281,0.0346467755912,0.0163554734197,-0.0443842075765,-0.00561478827149,0.0128858694807,0.0132949147373,0.0856094434857,-9.84543418884
522,1348765046,379091024,1348765046,378813028,0.408720161433,0.911849984577,0.0347459430394,0.0164363836234,-0.0311918836087,-0.00838066358119,0.00759820733219,0.0254471693188,0.0784239545465,-9.85438728333
523,1348765046,388184070,1348765046,387828111,0.408754705729,0.91184019831,0.0346160837164,0.0163942074601,-0.0459049195051,-0.0065689929761,0.00929420441389,0.0254567768425,0.0880782157183,-9.8447227478
524,1348765046,399066925,1348765046,398787975,0.408737731089,0.911842407339,0.0347179981844,0.0164788338386,-0.0348107330501,-0.00685142166913,-0.00490356981754,0.0327838435769,0.0759740173817,-9.84906482697
525,1348765046,408056020,1348765046,407778978,0.408756498328,0.911841943941,0.0345540105088,0.0163833666054,-0.0354336090386,0.000458510534372,0.00587172107771,0.0229452904314,0.0954468771815,-9.85465526581
526,1348765046,419224023,1348765046,418817043,0.408764335526,0.911828134388,0.0347782003696,0.0164817511079,-0.0558701008558,0.000384529295843,0.00298121455126,0.0231356360018,0.0807550400496,-9.84012031555
527,1348765046,428116083,1348765046,427865982,0.408776761898,0.911825493618,0.0347099913601,0.0164634328089,-0.0593872331083,-0.00578724965453,0.00468127569184,0.0327618829906,0.0906310677528,-9.85420799255
528,1348765046,439073085,1348765046,438776016,0.40879760386,0.911807732371,0.0348970036826,0.0165341283767,-0.0507627427578,0.000405823549954,0.00390246207826,0.0328632257879,0.0711295232177,-9.84920120239
529,1348765046,449153900,1348765046,447770118,0.408824168887,0.911801287027,0.0347670169914,0.0165065574545,-0.0474904440343,-0.00929026305676,0.00741840107366,0.0181319769472,0.0906265899539,-9.85995006561
530,1348765046,459146022,1348765046,458833932,0.408888853262,0.911763426642,0.0349601495919,0.0165875693468,-0.0496308356524,0.000618359073997,0.0146160805598,0.0328439176083,0.0759952515364,-9.84923648834
531,1348765046,468075037,1348765046,467782020,0.40893049852,0.911751728792,0.0348305510109,0.0164761992162,-0.0408633090556,0.00586784444749,0.0111639006063,0.0231260266155,0.0711007937789,-9.84978485107
532,1348765046,479142904,1348765046,478816032,0.408993108486,0.91171649124,0.0349845463301,0.0165456438559,-0.0452228188515,-0.00296455132775,0.0128267770633,0.040129955858,0.0712089836597,-9.85606384277
533,1348765046,488205909,1348765046,487814903,0.408996651683,0.911723235383,0.034798105274,0.01647946732,-0.0343211591244,-0.00673258071765,0.00218321429566,0.0278450641781,0.0906939283013,-9.86423397064
534,1348765046,499177932,1348765046,498780012,0.409024635631,0.911706744559,0.0348665191492,0.0165524987639,-0.0267619136721,-0.00843974109739,0.00578370131552,0.0280187372118,0.0710765495896,-9.84462547302
535,1348765046,508016109,1348765046,507762908,0.40904659031,0.911704692268,0.0347165633565,0.016437800349,-0.0371735990047,0.00489549199119,0.00671310629696,0.0377945490181,0.0613738037646,-9.84397220612
536,1348765046,519057989,1348765046,518786907,0.409090746928,0.911678172772,0.0348359591074,0.0165567515781,-0.0422722958028,-0.0101961381733,0.00654950086027,0.02313083224,0.0759279206395,-9.84495258331
537,1348765046,528126955,1348765046,527793884,0.409114277745,0.911673923147,0.0346820241883,0.0165324770708,-0.0439833514392,-0.0119686555117,0.00651658931747,0.027994627133,0.0711151584983,-9.84949302673
538,1348765046,539073944,1348765046,538786888,0.409113850875,0.911665190405,0.0348514194408,0.016667818981,-0.0505248345435,-0.0120908496901,0.000229939934798,0.0278884824365,0.0857895836234,-9.85933208466
539,1348765046,548242092,1348765046,547817945,0.409125790647,0.911667297033,0.034672357089,0.0166329372567,-0.0386847406626,-0.0120238559321,0.00388344097883,0.0230826083571,0.0760051384568,-9.85468673706
540,1348765046,559174060,1348765046,558778047,0.409084979096,0.911681590047,0.034749319672,0.0166926040659,-0.0261791609228,-0.00954236183316,-0.00491689844057,0.0182043556124,0.0784236490726,-9.85499572754
541,1348765046,568070888,1348765046,567794084,0.409102670822,0.911680815821,0.0346112177928,0.0165878989886,-0.0405644848943,0.00398447504267,0.00580213032663,0.0182501766831,0.0759328603745,-9.84767723083
542,1348765046,579025983,1348765046,578778982,0.409121606062,0.911668554106,0.0346821821513,0.0166464755723,-0.026595922187,-0.00318757514469,0.00227515492588,0.0230729095638,0.0905251204967,-9.84505748749
543,1348765046,588212013,1348765046,587836980,0.409012672158,0.911725559608,0.0344751094391,0.0166314401316,-0.0354819484055,-0.016990493983,-0.022900370881,0.0328584201634,0.0663023963571,-9.85403347015
544,1348765046,599061965,1348765046,598773956,0.409014696343,0.911720487935,0.0345854577734,0.0166305792496,-0.0282687619328,0.00920475553721,0.000586668553296,0.0254831444472,0.0784838050604,-9.85942554474
545,1348765046,608171939,1348765046,607887983,0.409083723968,0.911700162133,0.0343646864337,0.0165042260208,-0.0239496547729,0.000649628811516,0.0165885593742,0.0328439176083,0.0759952515364,-9.84923648834
546,1348765046,619237899,1348765046,618781089,0.40915765101,0.911658167694,0.0345637701192,0.0165755148204,-0.0498232804239,0.000686212384608,0.0181841626763,0.0231356807053,0.0686679333448,-9.84976673126
547,1348765046,628145933,1348765046,627764940,0.409182350824,0.911653400674,0.0344589920139,0.016445628069,-0.044988501817,0.0111233107746,0.00761520909145,0.0255410205573,0.0759737119079,-9.84967327118
548,1348765046,639136075,1348765046,638765096,0.409240171123,0.911619429031,0.0346310480248,0.0165284441248,-0.0526799559593,0.000474736356409,0.00746391387656,0.0279608163983,0.0856737419963,-9.8447303772
549,1348765046,648420095,1348765046,647943973,0.40928203292,0.91160599154,0.0345267968699,0.0164509578737,-0.0494501143694,0.00143504806329,0.0110629405826,0.0253915023059,0.0834653675556,-9.87406158447
550,1348765046,659034013,1348765046,658746957,0.409344725365,0.911570189245,0.0347128368486,0.0164834721443,-0.0428875014186,0.00774892326444,0.0165216233581,0.0181802455336,0.0784622579813,-9.85986232758
551,1348765046,668088912,1348765046,667792081,0.409350683323,0.911575171771,0.0345710958913,0.0163573714977,-0.0387518815696,0.00751130469143,0.00322620454244,0.0375656113029,0.0857970863581,-9.85857772827
552,1348765046,679075002,1348765046,678783893,0.409344356183,0.911569273869,0.0347710035385,0.0164205454058,-0.0538572371006,0.0038379856851,-0.00316404108889,0.032766982913,0.0711661949754,-9.85633087158
553,1348765046,688244104,1348765046,687834978,0.409373985035,0.911564247352,0.0345709139735,0.0163833828264,-0.0354770235717,-0.0137037932873,0.00752302398905,0.0228681527078,0.0907355844975,-9.87408828735
554,1348765046,699237108,1348765046,698858022,0.409399595303,0.91154322642,0.0347657927441,0.0165002239144,-0.0542999468744,-0.00663806172088,0.00565926171839,0.0230418257415,0.0711181610823,-9.85448074341
555,1348765046,708036899,1348765046,707777976,0.409482269476,0.911511799717,0.0346611802562,0.0164046501065,-0.0482514426112,0.00429397495463,0.0200762078166,0.0230273231864,0.0808110386133,-9.8496837616
556,1348765046,719492912,1348765046,718759059,0.409504456716,0.911495402562,0.0347842920608,0.0165010322069,-0.0387370288372,-0.00667773606256,0.00399357872084,0.0181539133191,0.0759695395827,-9.85480690002
557,1348765046,728095054,1348765046,727788925,0.409574097627,0.911471267276,0.03460987436,0.0164725250179,-0.0411115474999,-0.013531671837,0.0164063666016,0.0132635515183,0.0904944911599,-9.84790325165
558,1348765046,739161014,1348765046,738810062,0.409626523873,0.911441934502,0.0347258748083,0.016547646035,-0.0349281951785,-0.00650243274868,0.012944159098,0.0157244130969,0.0807894915342,-9.85012054443
559,1348765046,748198986,1348765046,747838020,0.4096390543,0.911443619673,0.0345500529258,0.0165126373545,-0.0404378883541,-0.0119972955436,0.00393019942567,0.0351481661201,0.0905977338552,-9.85145759583
560,1348765046,759346008,1348765046,758833885,0.409665676214,0.911425504196,0.0347101190215,0.0165164060898,-0.0380990691483,0.0111310575157,0.00683160126209,0.0376138351858,0.0857198610902,-9.84884357452
561,1348765046,768244028,1348765046,767858982,0.409726546724,0.911405375858,0.0345450377263,0.0164632358635,-0.0410349369049,-0.00823963526636,0.0146657694131,0.0181346051395,0.0808352828026,-9.85484218597
562,1348765046,779113054,1348765046,778763055,0.409806225963,0.91136326265,0.0347021286,0.0164809867391,-0.0387255810201,0.00780677003786,0.01840095222,0.0180381145328,0.0930768698454,-9.86466312408
563,1348765046,788151979,1348765046,787854909,0.409812105907,0.911368793291,0.0345606768977,0.0163254427414,-0.0370537377894,0.0128288678825,0.00329539249651,0.0156761910766,0.0808667168021,-9.85985469818
564,1348765046,799071073,1348765046,798783063,0.409881523262,0.911332024766,0.0346796767118,0.0163828430679,-0.034279178828,-0.00287995813414,0.0165461562574,0.0181418564171,0.0759888514876,-9.85724067688
565,1348765046,808068990,1348765046,807785034,0.409942711891,0.911311764442,0.0345117953447,0.0163333076591,-0.0410294979811,-0.0091254664585,0.0146537218243,0.0230225194246,0.0759839043021,-9.85451507568
566,1348765046,820214033,1348765046,819816112,0.409941086095,0.911304005908,0.0347078273128,0.0163915060488,-0.0505252704024,0.00564059708267,-0.00132782070432,0.0132997650653,0.0783494412899,-9.85024929047
567,1348765046,828069925,1348765046,827789068,0.409968446814,0.911298732931,0.0345649492167,0.0163020324274,-0.0424102433026,0.000493500265293,0.00760834338143,0.0131357442588,0.0955339893699,-9.86983966827
568,1348765046,839046001,1348765046,838784933,0.410021638669,0.911269482711,0.0346933773356,0.016326520508,-0.0357392728329,0.00411251327023,0.0112569993362,0.018103197217,0.0978074669838,-9.84766387939
569,1348765046,848246097,1348765046,847795009,0.410002001758,0.911285815523,0.0345162545721,0.0162834011031,-0.0400555059314,-0.0103688230738,-0.00317905982956,0.0229814574122,0.095388956368,-9.84735488892
570,1348765046,859216928,1348765046,858866930,0.410028459819,0.911265704886,0.0346752305811,0.0164044390608,-0.0449811778963,-0.0101354373619,0.0083726271987,0.0278959292918,0.0808253958821,-9.84939193726
571,1348765046,868099927,1348765046,867778062,0.41003885399,0.911268514555,0.0345372274791,0.0162792050456,-0.0405143685639,0.00752512551844,0.00410805782303,0.0278959292918,0.0808253958821,-9.84939193726
572,1348765046,879101037,1348765046,878776073,0.410031414353,0.911263819205,0.0347111500124,0.0163593128635,-0.0486863031983,0.000287296628812,-0.00315680005588,0.0376572534442,0.0808155089617,-9.84394168854
573,1348765046,888226032,1348765046,887840986,0.410022668392,0.911274202011,0.0345688347378,0.0163014053959,-0.0453700870275,-0.00498710153624,-0.000504780793563,0.0328320637345,0.0758967921138,-9.83933067322
574,1348765046,899055957,1348765046,898782014,0.410009584584,0.91127446975,0.0347031382861,0.0163301415933,-0.0400138571858,0.00379746034741,-0.00483940122649,0.025437515229,0.0808568298817,-9.85440444946
575,1348765046,908036947,1348765046,907779932,0.410077723688,0.91124972385,0.0345744590725,0.0162729253087,-0.0480183511972,-0.00465309387073,0.0164309367537,0.0230562388897,0.0855995565653,-9.83998394012
576,1348765046,919384002,1348765046,918786048,0.410131015161,0.911220976684,0.0346686827935,0.0163390479611,-0.0314009822905,-0.00476166978478,0.0112010519952,0.0230321269482,0.0856381654739,-9.84485149384
577,1348765046,928158998,1348765046,927862882,0.410199310626,0.911197608025,0.0345195222525,0.0162433763268,-0.0411674492061,0.000673501286656,0.0165257249027,0.0278959292918,0.0808253958821,-9.84939193726
578,1348765046,939074993,1348765046,938785076,0.410234649966,0.911173614601,0.034706485894,0.0162983391458,-0.0476624965668,0.00230656238273,0.00936242844909,0.022983904928,0.0857153907418,-9.85458564758
579,1348765046,948363065,1348765046,947796106,0.410287428088,0.911155644851,0.0345686427674,0.0162673337127,-0.0486710779369,-0.0100473538041,0.0128118107095,0.018033310771,0.0882497355342,-9.86949539185
580,1348765046,968135118,1348765046,967875003,0.410293182546,0.911148472944,0.0346681231829,0.0163121379144,-0.0308334939182,0.000354400690412,0.000539673084859,0.0328128039837,0.0686753988266,-9.84901237488
581,1348765046,968314886,1348765046,968118906,0.410257265575,0.911172479433,0.034490912322,0.016250099491,-0.0390160195529,-0.00689183082432,-0.00670363986865,0.0181152522564,0.0977881625295,-9.84523010254
582,1348765046,979090929,1348765046,978820085,0.410298480685,0.911145818156,0.0346702015204,0.0163227427552,-0.0476580895483,0.000531414814759,0.00934533402324,0.0156231652945,0.0761168077588,-9.87442111969
