%DLR Intertial Motion Unit recording log.  Contain the  information of the IMU .
Angular Velocity Covariance,0.000436332312999,0.0,0.0,0.0,0.000436332312999,0.0,0.0,0.0,0.000436332312999
Acceleration Covariance,0.0004,0.0,0.0,0.0,0.0004,0.0,0.0,0.0,0.0004
MessageSequence,SystemTimeSecs,SystemTimenSecs,TimeStampSecs,TimeStampnSecs,ROT_X,ROT_Y,ROT_Z,ROT_W,ROTVEL_X,ROTVEL_Y,ROTVEL_Z,ACC_X,ACC_Y,ACC_Z
1,1348766468,868640899,1348766468,868232011,0.421384821903,0.906831858875,0.00557547306003,0.00772824032468,-0.045484803617,-0.00892355386168,0.0180760137737,-0.0966855734587,0.0956337675452,-9.84812068939
2,1348766468,878559112,1348766468,878232002,0.421425527888,0.906811428839,0.00575667756896,0.00777287810064,-0.043295186013,0.00685602566227,0.00842582806945,-0.0966759175062,0.0932010561228,-9.84810256958
3,1348766468,888566017,1348766468,888242959,0.42148940928,0.906779861998,0.00591355899724,0.00787334487387,-0.0418682806194,-0.00544831901789,0.0145724611357,-0.106431975961,0.0980377569795,-9.84872055054
4,1348766468,898586034,1348766468,898227930,0.421509594273,0.906768470013,0.00605990135203,0.00799257914669,-0.0413204133511,-0.00918438006192,0.00472129369155,-0.0821383222938,0.098186776042,-9.85699653625
5,1348766468,908680915,1348766468,908292055,0.42155757241,0.906744574771,0.00620724608966,0.00805973720619,-0.0373994782567,-0.000186714940355,0.0110752247274,-0.0821021571755,0.098128862679,-9.84969615936
6,1348766468,918546915,1348766468,918220043,0.421581250551,0.906731934418,0.00635432386385,0.00812839830032,-0.0371072292328,-0.000299862935208,0.00573527393863,-0.101573251188,0.100484833121,-9.84844684601
7,1348766468,928545951,1348766468,928220987,0.421650200467,0.906698470383,0.00643359709435,0.00822198764056,-0.0272915586829,-0.0107571100816,0.0155269559473,-0.101607061923,0.115042500198,-9.84368515015
8,1348766468,938586950,1348766468,938218116,0.421622438836,0.906709485341,0.00659276195586,0.00830444171637,-0.0407188534737,-0.000547517382074,-0.00677955476567,-0.0991028994322,0.100434102118,-9.84100055695
9,1348766468,948606967,1348766468,948261976,0.421613500734,0.906711653183,0.00674755248206,0.00839669680792,-0.0409986786544,-0.00398667901754,-0.0014696723083,-0.0918461084366,0.0908599197865,-9.85752677917
10,1348766468,958626031,1348766468,958205938,0.421574595822,0.906729093749,0.00684945407068,0.00838425225324,-0.025154100731,0.0100494055077,-0.0092461630702,-0.0967434421182,0.0981436893344,-9.8578710556
11,1348766468,968729972,1348766468,968298912,0.421598345016,0.90671613964,0.00697929155122,0.00848334163539,-0.0370829254389,-0.00739864772186,0.00567283760756,-0.0992017835379,0.110261470079,-9.85323810577
12,1348766468,978715896,1348766468,978311061,0.421589157708,0.906718627612,0.00708740047856,0.00858377538654,-0.0381750315428,-0.00585419731215,-0.00591525668278,-0.1016407758,0.105427466333,-9.85821533203
13,1348766468,988493919,1348766468,988224983,0.421588639547,0.906717243586,0.00724912822812,0.00862028591305,-0.037704076618,0.00669598765671,0.000440897798399,-0.0967193320394,0.0981050878763,-9.85300445557
14,1348766468,998548030,1348766468,998214006,0.421663135859,0.906680572306,0.00736723520795,0.00873289785062,-0.042014438659,-0.0177992265671,0.0180238634348,-0.0967241823673,0.105364613235,-9.84819030762
15,1348766469,8542060,1348766469,8204936,0.421703309478,0.906660249737,0.00749709492741,0.00879226308562,-0.0338702239096,-0.000228056829656,0.00933008361608,-0.096762791276,0.115095466375,-9.84825992584
16,1348766469,18583059,1348766469,18215894,0.421676233334,0.906670577994,0.00769742708696,0.0088525057158,-0.0511376932263,0.00126404233743,-0.00505308201537,-0.101568445563,0.105311647058,-9.84361553192
17,1348766469,28721094,1348766469,28317928,0.42170707084,0.906653454577,0.00789088132988,0.00896625335788,-0.0500761978328,-0.00470315758139,0.00739133218303,-0.10642721504,0.114950925112,-9.83424282074
18,1348766469,38753032,1348766469,38309097,0.421796628354,0.906611114654,0.00798953365898,0.00894753856787,-0.0398013629019,0.0148071749136,0.00674872193485,-0.096762791276,0.115095466375,-9.84825992584
19,1348766469,48129081,1348766469,47821044,0.421804096042,0.906605486893,0.00811288980938,0.00905409944639,-0.0368774570525,-0.00924646481872,0.00209163152613,-0.101587750018,0.110177069902,-9.8436498642
20,1348766469,58603048,1348766469,58244943,0.421901460348,0.906559323528,0.00820674682788,0.00905538447962,-0.0469486489892,-0.000154054301674,0.0127963451669,-0.0918196439743,0.105321064591,-9.84059810638
21,1348766469,68514108,1348766469,68262100,0.421925409189,0.906546202024,0.00830755157526,0.00916063664977,-0.0327693559229,-0.0109498389065,0.00567126693204,-0.0991680249572,0.107790149748,-9.84835338593
22,1348766469,78634977,1348766469,78296899,0.422021363214,0.906499579189,0.00844330676103,0.00922997791433,-0.0472161956131,-0.00715467473492,0.0180944614112,-0.11377799511,0.11500659585,-9.84441375732
23,1348766469,88787078,1348766469,88332891,0.422037056457,0.906490265846,0.00858519602203,0.0092959837492,-0.0370117388666,-0.000334997137543,0.00395553885028,-0.0967145785689,0.115018248558,-9.83852672577
24,1348766469,98747968,1348766469,98236083,0.422109733296,0.906456410597,0.00864148531054,0.00924518664333,-0.0249409452081,-0.00358092249371,0.0191693808883,-0.0894891396165,0.110328793526,-9.85752105713
25,1348766469,108628988,1348766469,108247995,0.422133770836,0.906443139408,0.00873744388119,0.00935797064883,-0.0327642560005,-0.0127205373719,0.00564953777939,-0.0894698351622,0.105463370681,-9.85748672485
26,1348766469,118607997,1348766469,118236064,0.422209064348,0.906407529479,0.00882639177673,0.00932691234435,-0.0383674278855,0.00161646888591,0.0128834573552,-0.101607061923,0.115042500198,-9.84368515015
27,1348766469,128556013,1348766469,128257036,0.422240585973,0.906390420813,0.00896490910339,0.00942990032401,-0.039757732302,-0.00736470520496,0.00744117284194,-0.101616710424,0.11747521162,-9.84370231628
28,1348766469,138581991,1348766469,138254880,0.422251513548,0.906385123139,0.00898641022292,0.00942933140261,-0.0307483449578,-0.0137204853818,0.000313899043249,-0.101607061923,0.115042500198,-9.84368515015
29,1348766469,148755073,1348766469,148310899,0.422251425481,0.906383501411,0.00909805048654,0.00948195796956,-0.0308099091053,-0.000408889114624,0.000439904339146,-0.109001249075,0.12000220269,-9.85875797272
30,1348766469,158739089,1348766469,158273935,0.422287210977,0.906365879076,0.00917121402226,0.00950229052879,-0.0363003835082,-0.0109216254205,0.00744011579081,-0.116139858961,0.114883594215,-9.82995986938
31,1348766469,168670892,1348766469,168243885,0.422309841475,0.906352269998,0.00934665099714,0.00962291941387,-0.0482445843518,-0.0073982514441,0.0055868239142,-0.0990811958909,0.0979820862412,-9.83855056763
32,1348766469,178628921,1348766469,178224086,0.422265268929,0.906371844158,0.00950465450536,0.00958041314052,-0.0426360145211,-0.000473293970572,-0.00322474469431,-0.0869633704424,0.11744107306,-9.83309459686
33,1348766469,188565969,1348766469,188224077,0.422297319722,0.906354871043,0.00960994394484,0.0096680127193,-0.0328814983368,-0.00736356573179,0.0074857622385,-0.0967338383198,0.107797324657,-9.84820747375
34,1348766469,198559999,1348766469,198240041,0.422355185625,0.906327258796,0.00967027590769,0.00966865573447,-0.0369375161827,0.00672973645851,0.00223086448386,-0.0966470092535,0.0979892611504,-9.83840465546
35,1348766469,208597898,1348766469,208249092,0.422402877944,0.906302402307,0.00980147236661,0.00978240337002,-0.0399405024946,-0.00995341315866,0.0109763694927,-0.0967482924461,0.105403222144,-9.85305690765
36,1348766469,218624114,1348766469,218291997,0.422485773793,0.906263028378,0.00986478724231,0.00978674157071,-0.0315392874181,-0.000140318676131,0.0138088893145,-0.101679384708,0.115158319473,-9.85828495026
37,1348766469,228694915,1348766469,228307008,0.42257399691,0.906219752185,0.0100071312713,0.00984048827116,-0.037033714354,0.0017593113007,0.0200233049691,-0.0966759622097,0.105287402868,-9.83845710754
38,1348766469,239557027,1348766469,239228010,0.422633478115,0.906191945207,0.0100474430836,0.00980563645133,-0.0448041930795,-0.00916936993599,0.00559295574203,-0.0869633257389,0.105354726315,-9.8427400589
39,1348766469,248584032,1348766469,248243093,0.422656777033,0.906178514597,0.0101825797021,0.00990270574469,-0.0396544784307,-0.00651132268831,0.00565603375435,-0.096637353301,0.0955565497279,-9.83838653564
40,1348766469,259592056,1348766469,259283065,0.422794681315,0.906113809023,0.0101785579478,0.00994080019826,-0.0401319228113,-0.010771850124,0.0145378205925,-0.101614266634,0.107802271843,-9.85093307495
41,1348766469,268579959,1348766469,268250942,0.422834599213,0.906093224257,0.0103112813997,0.00998239145911,-0.0347427017987,0.00331673864275,0.00936282332987,-0.111343808472,0.11501377821,-9.84426784515
42,1348766469,279761075,1348766469,279398918,0.422877717172,0.906071887859,0.0104490579519,0.00994924816528,-0.0431681126356,0.0103520397097,0.00578978238627,-0.0967193767428,0.110191434622,-9.84335803986
43,1348766469,288753986,1348766469,288243055,0.42290183238,0.906058566919,0.0105338186154,0.0100474946453,-0.0310483071953,-0.0109498165548,0.00568206002936,-0.0967000722885,0.105326004326,-9.84332370758
44,1348766469,299791097,1348766469,299247980,0.423052096401,0.905989800852,0.0105046473624,0.00995273166246,-0.0335252992809,-2.85284040729e-05,0.018310174346,-0.0967795625329,0.110170267522,-9.84318733215
45,1348766469,308501005,1348766469,308163881,0.423071231321,0.905978027096,0.010673180628,0.0100314935932,-0.0448242500424,-0.000295870035188,0.00485216919333,-0.106516331434,0.110141545534,-9.84377098083
46,1348766469,319588899,1348766469,319224119,0.423227229781,0.905907694852,0.0105323969467,0.00995133130776,-0.0295385699719,-0.00377250206657,0.00849140249193,-0.0968132838607,0.100555218756,-9.85771751404
47,1348766469,328552007,1348766469,328253984,0.423257505174,0.90588996068,0.0107704671708,0.0100229980612,-0.0570290051401,0.00686223991215,0.0074991309084,-0.0967675074935,0.110150963068,-9.84075450897
48,1348766469,339512109,1348766469,339221954,0.423229857217,0.905904151726,0.0108534533317,0.00981623121473,-0.0327473431826,-0.000316235731589,0.00405260687694,-0.106530830264,0.119833804667,-9.83897399902
49,1348766469,348566055,1348766469,348242044,0.423265644267,0.905885454826,0.011012423635,0.00982159065935,-0.0373411625624,0.0121992351487,0.00859120115638,-0.106569394469,0.117478303611,-9.84869003296
50,1348766469,359760999,1348766469,359275102,0.423331636581,0.905855458335,0.0109533980891,0.00981005323755,-0.0291108712554,-0.0127949267626,0.00128793425392,-0.10651152581,0.114968366921,-9.83893871307
51,1348766469,368700981,1348766469,368242979,0.423384050921,0.905828742149,0.0110610663963,0.00989384318083,-0.0348762311041,-0.00636678375304,0.0120019325987,-0.101635895669,0.110136598349,-9.84104537964
52,1348766469,379574060,1348766469,379213094,0.4235569292,0.905748907602,0.0109885991717,0.00988406755647,-0.0332399830222,0.00164222542662,0.0129726501182,-0.091915987432,0.105357795954,-9.84772777557
53,1348766469,388642072,1348766469,388263940,0.423564521977,0.905743100453,0.0111243006492,0.00993889533548,-0.037815079093,0.00142581167165,0.00224461406469,-0.106574200094,0.112651474774,-9.85352134705
54,1348766469,399597883,1348766469,399298906,0.423606682624,0.905724253825,0.0111590385723,0.00981989444468,-0.0378183014691,0.00320298434235,0.00225586956367,-0.0967795625329,0.110170267522,-9.84318733215
55,1348766469,408600091,1348766469,408282995,0.423626661822,0.905713248629,0.0112901015531,0.0098232509254,-0.0328407101333,0.0103539451957,0.00503716478124,-0.101679302752,0.115040645003,-9.84594726562
56,1348766469,419600963,1348766469,419255018,0.423709215396,0.905676008955,0.0112343335581,0.00975998673479,-0.0301427580416,-0.00475501315668,0.00402602599934,-0.106424696743,0.105160288513,-9.82913589478
57,1348766469,428581953,1348766469,428210973,0.423645092527,0.905704601674,0.0113116803067,0.00980081492927,-0.0266166869551,-0.000670277746394,-0.0137437442318,-0.101662449539,0.119848161936,-9.83868217468
58,1348766469,439690113,1348766469,439285039,0.423679773577,0.90568928861,0.0113203089204,0.00970631565674,-0.0427381880581,-0.00574545608833,-0.00142847490497,-0.106465660036,0.100391373038,-9.84126758575
59,1348766469,448494911,1348766469,448230981,0.423719664429,0.905668558398,0.011452479451,0.00974417873755,-0.0364932008088,0.00423271860927,0.00940746534616,-0.0967843681574,0.105343438685,-9.84801959991
60,1348766469,459600925,1348766469,459237098,0.423775102603,0.905642257311,0.0115221532074,0.00969557491318,-0.0372424796224,0.00153114867862,0.00759816681966,-0.106497019529,0.105276107788,-9.84373569489
61,1348766469,468571901,1348766469,468285083,0.423733709065,0.905659407142,0.0116911934388,0.00970041514278,-0.0407183021307,0.0136449681595,-0.00837701931596,-0.089542068541,0.105461493134,-9.85974884033
62,1348766469,479588031,1348766469,479284048,0.423848678331,0.905608282237,0.0116179764808,0.00953727653308,-0.0331627726555,-0.00370363285765,0.0120333293453,-0.0966927334666,0.100362181664,-9.83338451385
63,1348766469,488614082,1348766469,488229036,0.42386446276,0.905598376811,0.0117288058981,0.00964013681117,-0.0387269482017,-0.00918109808117,0.00391454529017,-0.0822178348899,0.115117385983,-9.84721469879
64,1348766469,499538898,1348766469,499237060,0.424013564036,0.905527904257,0.011686746795,0.00975356731786,-0.0439159944654,-0.000309950119117,0.00396059872583,-0.0967843681574,0.105343438685,-9.84801959991
65,1348766469,508548974,1348766469,508232116,0.424028429232,0.905518045911,0.0118575928827,0.00981617150156,-0.0465060397983,0.00323866144754,0.00397451873869,-0.101621389389,0.100444339216,-9.84584236145
66,1348766469,519576072,1348766469,519233942,0.424151662324,0.905461728615,0.011773483845,0.00978828074945,-0.0277828238904,-0.000238982000155,0.00764268497005,-0.0870234966278,0.105333551764,-9.8425693512
67,1348766469,528539896,1348766469,528215885,0.424239737675,0.905418649538,0.0119322050913,0.0097640426189,-0.0371394231915,0.0177519377321,0.0202429033816,-0.113888867199,0.124735608697,-9.8467464447
68,1348766469,539609909,1348766469,539215087,0.4243046375,0.905387245998,0.0120176162815,0.00975121942368,-0.0480975061655,0.00673365173861,0.00132706237491,-0.106535635889,0.11500697583,-9.84380531311
69,1348766469,548636913,1348766469,548307895,0.424304348124,0.905384581995,0.012104052578,0.00990306817602,-0.0393539182842,-0.0199083797634,0.000256887316937,-0.106651373208,0.12002684176,-9.86330795288
70,1348766469,559720993,1348766469,559271097,0.424386666332,0.905346054894,0.012097361823,0.00990616799359,-0.0428397394717,-0.00570684159175,0.000353020324837,-0.0992185622454,0.105336256325,-9.84816551208
71,1348766469,568569898,1348766469,568268060,0.424369329445,0.905350998581,0.012230980704,0.0100321835221,-0.0460557900369,-0.0111058671027,-0.00328536168672,-0.108902253211,0.0979707762599,-9.84382915497
72,1348766469,579530000,1348766469,579251050,0.424472915374,0.905302931945,0.0122387432532,0.00997791004025,-0.0312837027013,0.00421504024416,0.00854910165071,-0.0918508693576,0.0980017334223,-9.84037494659
73,1348766469,588536024,1348766469,588233947,0.424472697513,0.90530064081,0.0123175702042,0.0100973402136,-0.0359243564308,-0.0145803801715,0.000314838514896,-0.0918677225709,0.0931942090392,-9.84764003754
74,1348766469,599450111,1348766469,599221944,0.424541811428,0.905268056647,0.0123811576175,0.0100350834691,-0.0482117943466,-0.000310109258862,0.00393105857074,-0.0967675074935,0.110150963068,-9.84075450897
75,1348766469,608541011,1348766469,608247041,0.424605948472,0.905236161644,0.0124932558894,0.0100597580277,-0.0342138856649,0.00522833643481,0.0147826615721,-0.0919497460127,0.107829123735,-9.85261154175
76,1348766469,619781970,1348766469,619218111,0.424711745729,0.905187394579,0.0124613591245,0.0100213903207,-0.0464648902416,-0.00741391116753,0.00388512271456,-0.10651152581,0.114968366921,-9.83893871307
77,1348766469,628532886,1348766469,628226995,0.42475888443,0.905163078789,0.0126207866929,0.0100203112949,-0.0409288778901,0.0140341101214,0.0112439058721,-0.0919448956847,0.100569576025,-9.85742664337
78,1348766469,639539957,1348766469,639235973,0.424872508473,0.905111386321,0.0125446727192,0.00996800288483,-0.0396796688437,-0.0109242182225,0.00568146863952,-0.0968711972237,0.115151524544,-9.85782241821
79,1348766469,648577928,1348766469,648241996,0.424870825823,0.905109373656,0.0127109299123,0.0100117603539,-0.0463316254318,0.00672257039696,0.000439233815996,-0.0870862156153,0.115103028715,-9.84750556946
80,1348766469,659583091,1348766469,659281015,0.424957059985,0.905069334492,0.012700393454,0.00998483531609,-0.0312841795385,-0.00730505306274,0.00933735817671,-0.0893974155188,0.105229854584,-9.83054828644
81,1348766469,668546915,1348766469,668253898,0.425036886214,0.905029306987,0.0128114336451,0.0100730343338,-0.0403772592545,-0.00623942771927,0.0182046666741,-0.096822977066,0.115074306726,-9.84808921814
82,1348766469,679538965,1348766469,679246902,0.425157125247,0.904972172588,0.0128320432567,0.010105659755,-0.0444391071796,-0.0142997037619,0.0145327812061,-0.101604536176,0.105251863599,-9.83857727051
83,1348766469,688623905,1348766469,688230991,0.425172130974,0.904962810241,0.0129534186321,0.0101577590528,-0.0396217927337,0.00146554678213,0.00400275271386,-0.0918532684445,0.0955883190036,-9.84279060364
84,1348766469,699763059,1348766469,699265956,0.425220473861,0.904939330368,0.0129520579966,0.0102274706997,-0.036080788821,-0.0251620896161,0.00379451736808,-0.0967868193984,0.115016393363,-9.84078884125
85,1348766469,708538055,1348766469,708239078,0.425170592436,0.904960445642,0.0130821890692,0.0102672041158,-0.0405818484724,0.00473261065781,-0.0102388923988,-0.0919376909733,0.107809819281,-9.85017871857
86,1348766469,719666004,1348766469,719266891,0.425247186624,0.904925750661,0.0130238755801,0.0102271561554,-0.0378303416073,-0.0171730685979,0.00384910963476,-0.0967771187425,0.100497305393,-9.85041809082
87,1348766469,728563070,1348766469,728260040,0.425262429612,0.90491571529,0.0131037618128,0.0103781312473,-0.0412623435259,-0.019834337756,0.00380292069167,-0.0968518927693,0.110286086798,-9.85778808594
88,1348766469,739563941,1348766469,739253044,0.425272674119,0.904910154541,0.0132099142857,0.0103083956837,-0.0479215569794,-0.000415158516262,-0.00142070837319,-0.0968084782362,0.105382047594,-9.85288619995
89,1348766469,748588085,1348766469,748352050,0.425287804365,0.904900778241,0.0133029018735,0.0103873865249,-0.0378824174404,-0.00563525082543,0.00395866762847,-0.0943887904286,0.115081489086,-9.84794330597
90,1348766469,759658098,1348766469,759226083,0.425390681308,0.904852787472,0.0132567940656,0.0104143492971,-0.0414941757917,-0.0206287801266,0.00824296753854,-0.0772626250982,0.105323664844,-9.83711910248
91,1348766469,768688917,1348766469,768245935,0.425463549223,0.904817899457,0.0132859603058,0.0104316999123,-0.0214038752019,-6.78037977195e-05,0.0166237019002,-0.101715512574,0.127184927464,-9.84360122681
92,1348766469,779593944,1348766469,779305934,0.425532528618,0.904785567107,0.013263732724,0.010450743358,-0.0361064560711,-0.0180589742959,0.00385052431375,-0.0894504338503,0.100480236113,-9.84511375427
93,1348766469,788594007,1348766469,788256883,0.425587585477,0.904757156993,0.0133659856395,0.010537760017,-0.0409459657967,-0.00634638871998,0.0128524592146,-0.0968374833465,0.124766565859,-9.84329223633
94,1348766469,799726963,1348766469,799218893,0.425685097454,0.904710080136,0.0134993469454,0.0104707372186,-0.0542326718569,-0.00354074453935,0.0199116002768,-0.101672053337,0.110194511712,-9.84834575653
95,1348766469,808629989,1348766469,808253049,0.425695489356,0.904703380308,0.0136284517183,0.0104598903016,-0.0379100628197,0.0138734355569,0.00323949172162,-0.0894697383046,0.105345673859,-9.84514808655
96,1348766469,819601058,1348766469,819255113,0.425687815447,0.904705430085,0.013702413389,0.0104982104377,-0.035749219358,-0.0111028468236,-0.00321264308877,-0.0967964231968,0.105362743139,-9.8504524231
97,1348766469,828718900,1348766469,828299045,0.42564624166,0.904723287322,0.0137794741753,0.0105440234048,-0.0337839238346,-0.000559655367397,-0.0084507195279,-0.0968157276511,0.110228173435,-9.85048770905
98,1348766469,839507102,1348766469,839199066,0.42571945241,0.904688410848,0.013838642366,0.0105032896816,-0.0399956665933,-0.00371715403162,0.0110912956297,-0.0919256359339,0.107790514827,-9.84774494171
99,1348766469,848594903,1348766469,848247051,0.425758437393,0.904668385508,0.0139158723734,0.010545792825,-0.0338918268681,-0.000200786729692,0.00937599129975,-0.0821165069938,0.0956170409918,-9.84220790863
100,1348766469,859529972,1348766469,859200954,0.425798840459,0.904648203575,0.0139852103177,0.0105541046265,-0.0462756454945,-0.00659167813137,0.000318253674777,-0.0943839401007,0.107821941376,-9.85275745392
101,1348766469,868572950,1348766469,868244886,0.425788100113,0.904649825665,0.0141270221733,0.0106589854718,-0.0513384602964,-0.0057404525578,-0.00149164709728,-0.0992619767785,0.110240295529,-9.8530664444
102,1348766469,879515886,1348766469,879287958,0.425870153752,0.904612139221,0.0141450350107,0.0105549846556,-0.031311288476,0.00865336321294,0.0085955010727,-0.0919666513801,0.11510796845,-9.85023117065
103,1348766469,888741970,1348766469,888303995,0.425870393563,0.904607863208,0.0143361794796,0.0106534345408,-0.0601011402905,-0.000358706747647,0.00116630888078,-0.0944176986814,0.110293269157,-9.85764217377
104,1348766469,899543046,1348766469,899234056,0.425987404262,0.904551439258,0.0143509581587,0.0107459362732,-0.0449366495013,-0.0100044058636,0.00744034489617,-0.109042152762,0.115115620196,-9.85855197906
105,1348766469,908494949,1348766469,908226013,0.425968813606,0.90455805407,0.0144720462304,0.0107636671335,-0.040985904634,0.00842336658388,-0.00307072745636,-0.0919184312224,0.115030758083,-9.84049797058
106,1348766469,919559955,1348766469,919231891,0.426053859134,0.904519016533,0.0144260078994,0.0107400252766,-0.0303075183183,-0.0135559076443,0.00751063693315,-0.101647943258,0.110155902803,-9.84347915649
107,1348766469,928512096,1348766469,928220033,0.426116473823,0.904488165632,0.0145121786051,0.0107380463445,-0.0333669967949,0.00877549313009,0.014824715443,-0.0967795625329,0.110170267522,-9.84318733215
108,1348766469,939558982,1348766469,939263105,0.426182229626,0.904455698556,0.0146069230307,0.0107347240273,-0.0532469600439,0.00407519331202,0.00126229564194,-0.101739577949,0.115137159824,-9.85811424255
109,1348766469,948628902,1348766469,948324918,0.426237064762,0.904428032699,0.0146599629002,0.010815903953,-0.0349157974124,-0.00900414865464,0.0128567088395,-0.0870813205838,0.095757111907,-9.86196613312
110,1348766469,959734916,1348766469,959301948,0.426322109882,0.904386406698,0.014748815874,0.0108239750854,-0.0381888560951,0.0104271518067,0.0085618365556,-0.0967795625329,0.110170267522,-9.84318733215
111,1348766469,968575954,1348766469,968251943,0.426304292055,0.904392881477,0.0147982477161,0.0109168847714,-0.0357433892787,-0.0111014060676,-0.00321826967411,-0.0894166752696,0.098008915782,-9.84022903442
112,1348766469,980216026,1348766469,979321956,0.426384064178,0.904354206845,0.0148515419991,0.0109329811444,-0.04151994735,-0.0037856681738,0.00750905601308,-0.0870717167854,0.105410762131,-9.85230255127
113,1348766469,988555908,1348766469,988210916,0.426430025139,0.904330327623,0.0149306437633,0.0110076372461,-0.0399848222733,-0.00549041805789,0.0110693722963,-0.0870186462998,0.0980740040541,-9.84738349915
114,1348766469,999520063,1348766469,999224901,0.426526797509,0.904284587746,0.0149940107045,0.0109295477932,-0.0385836549103,-6.21597937425e-05,0.0164888724685,-0.0919063836336,0.115011453629,-9.83806419373
115,1348766470,8511066,1348766470,8223056,0.426527204142,0.904280822413,0.0151241092631,0.0110453456767,-0.0531923472881,-0.00834683794528,0.0011438394431,-0.0895204097033,0.115095846355,-9.84765148163
116,1348766470,19634962,1348766470,19288063,0.426565984564,0.904262372977,0.0152057408309,0.0109456418739,-0.0515066832304,-0.000361441954738,0.0012306390563,-0.0968277826905,0.110247477889,-9.85292053223
117,1348766470,28682947,1348766470,28306007,0.426579436214,0.904254493215,0.0152892476457,0.0109560488548,-0.036210089922,0.00678483163938,0.0040857931599,-0.108936019242,0.100442104042,-9.84871292114
118,1348766470,39601087,1348766470,39252996,0.426627655683,0.904229934792,0.0153794351931,0.0109791349859,-0.034572456032,0.0015009046765,0.00582708325237,-0.0968494415283,0.100613132119,-9.86501789093
119,1348766470,48644065,1348766470,48213958,0.426666047897,0.904211076077,0.0154123352604,0.0109942436439,-0.0278925932944,0.00157088821288,0.00944572687149,-0.0919594019651,0.110261842608,-9.85262966156
120,1348766470,59547901,1348766470,59254884,0.42663383909,0.90422473468,0.0154814820869,0.0110236223301,-0.0371350795031,-0.0130005283281,-0.00866085384041,-0.0772313773632,0.100556634367,-9.84698867798
121,1348766470,68562984,1348766470,68280935,0.426647523208,0.904217674248,0.0155177323001,0.0110221822505,-0.0275798328221,0.00498851342127,0.00407172832638,-0.0966952741146,0.110152825713,-9.83849143982
122,1348766470,79575061,1348766470,79247951,0.426735170171,0.904173737685,0.0156086605774,0.0111047887775,-0.0432767756283,-0.000240788605879,0.00836551561952,-0.0895084515214,0.115194216371,-9.85755634308
123,1348766470,88728904,1348766470,88249921,0.426736323837,0.904171501388,0.0156521176724,0.0111811094775,-0.0359777808189,-0.00837205257267,0.00120963249356,-0.0919233337045,0.110321618617,-9.8576669693
124,1348766470,99558115,1348766470,99257946,0.426775204636,0.90415023111,0.0157639564998,0.0112597498984,-0.0360765382648,0.00318071688525,0.00221596774645,-0.0919234231114,0.134494304657,-9.83837509155
125,1348766470,108513116,1348766470,108234882,0.426892118144,0.904093147135,0.0158623485049,0.0112732723147,-0.0408894754946,0.00722771324217,0.027182707563,-0.096762791276,0.115095466375,-9.84825992584
126,1348766470,119560956,1348766470,119230985,0.426981345101,0.904050330226,0.0158994790034,0.0112755452694,-0.0280533507466,-0.000157017813763,0.0129403518513,-0.0968110114336,0.115172676742,-9.85799407959
127,1348766470,128530979,1348766470,128226041,0.427057780187,0.904012200677,0.0159966165767,0.0113005162436,-0.0421130880713,0.00527779525146,0.0182337798178,-0.0918992236257,0.110283009708,-9.85280036926
128,1348766470,139552116,1348766470,139259099,0.427046659298,0.904016159885,0.0160735083371,0.0112949448438,-0.0340224802494,-0.00580116966739,-0.00320988683961,-0.0967338383198,0.107797324657,-9.84820747375
129,1348766470,148775100,1348766470,148209095,0.427076223778,0.904001104561,0.0160875012761,0.0113619690105,-0.0311558805406,-0.00914294179529,0.00748943444341,-0.106463380158,0.115008831024,-9.84154319763
130,1348766470,159615039,1348766470,159224033,0.427129713103,0.90397379796,0.0161900602008,0.0113781693662,-0.0381142310798,-0.000241164627369,0.00839709676802,-0.0869922339916,0.100566521287,-9.8524389267
131,1348766470,168534994,1348766470,168226003,0.427134250373,0.903971025452,0.0162304467229,0.0113705716836,-0.0300688762218,0.0067343832925,0.00227718404494,-0.0821190625429,0.105407692492,-9.84731578827
132,1348766470,179538011,1348766470,179267883,0.427223004678,0.903927253915,0.0163273899061,0.011377180791,-0.035043079406,0.00520224124193,0.0147222690284,-0.101623915136,0.110234983265,-9.85095024109
133,1348766470,188657999,1348766470,188265085,0.42729132944,0.903893386493,0.016397897479,0.0114006402656,-0.0385669581592,0.00346762826666,0.0164558980614,-0.0869753807783,0.105374030769,-9.84517383575
134,1348766470,199537038,1348766470,199256896,0.427369211226,0.903854483895,0.0164835809787,0.0114420626239,-0.0425279475749,-0.00640179822221,0.0109842382371,-0.0918172001839,0.095648124814,-9.84782886505
135,1348766470,208606004,1348766470,208256006,0.427454153761,0.903813763846,0.0165219164125,0.0114303540168,-0.0301863327622,0.00708046602085,0.0201282911003,-0.108916826546,0.107780732214,-9.85136985779
136,1348766470,219588041,1348766470,219254016,0.427591973608,0.903748781907,0.0164765699273,0.011478935101,-0.0262139290571,-0.00552289979532,0.0111287152395,-0.108953036368,0.119924992323,-9.84902381897
137,1348766470,228543996,1348766470,228229045,0.42761209888,0.903738918609,0.0165172404676,0.0114472988591,-0.0294195022434,0.0112396199256,0.00589116150513,-0.0918172001839,0.095648124814,-9.84782886505
138,1348766470,239516019,1348766470,239224910,0.427656670964,0.903715102911,0.0165896602335,0.0115571503611,-0.0411590635777,-0.0127943605185,0.00202468945645,-0.0991583690047,0.105357438326,-9.84833621979
139,1348766470,248620986,1348766470,248276948,0.427736309121,0.903675141211,0.0166643342,0.0116270797331,-0.0446924753487,-0.00445994641632,0.019003411755,-0.0699071139097,0.0981261581182,-9.84410095215
140,1348766470,259650945,1348766470,259345054,0.427835534597,0.903624014336,0.0168147035398,0.0117329364028,-0.0536558739841,0.00510015990585,0.00923353806138,-0.096762791276,0.115095466375,-9.84825992584
141,1348766470,268548965,1348766470,268261909,0.427878776148,0.903601351317,0.0168863015853,0.0117984591439,-0.0442557558417,-0.00373735488392,0.0109919514507,-0.0869295150042,0.090797059238,-9.84750175476
142,1348766470,279534101,1348766470,279252052,0.427849139359,0.903612308299,0.0169713428813,0.0119114970342,-0.0354083292186,-0.0147802820429,-0.00865975767374,-0.0918292552233,0.0956674292684,-9.85026168823
143,1348766470,288290977,1348766470,287853002,0.427844680199,0.903612635233,0.0169985941524,0.0120076171219,-0.0393430776894,-0.0128275118768,0.000251688266871,-0.0894168168306,0.11021297425,-9.84292125702
144,1348766470,299746036,1348766470,299268007,0.427899771198,0.903583447716,0.0171538884844,0.012020105376,-0.0499847605824,0.00855989474803,0.00483166938648,-0.0966952741146,0.110152825713,-9.83849143982
145,1348766470,308532953,1348766470,308221101,0.427958718775,0.903553540776,0.0172263292552,0.0120659668418,-0.043613165617,-0.000121609591588,0.0146106835455,-0.101611860096,0.110215678811,-9.84851646423
146,1348766470,319591045,1348766470,319238901,0.427983829828,0.90353875809,0.0173253662811,0.0121402519926,-0.0529424063861,-0.0146599644795,-0.00252891983837,-0.11137997359,0.115071684122,-9.85156822205
147,1348766470,328524112,1348766470,328226089,0.428060362191,0.903501256145,0.0173138946844,0.0122488985864,-0.0342737771571,-0.0186852477491,0.0180665757507,-0.0869440212846,0.10048930347,-9.84270572662
148,1348766470,339549064,1348766470,339219093,0.428056123649,0.903499884138,0.0174670861493,0.0122806869267,-0.0469387024641,0.00130042328965,-0.0032405059319,-0.0967000722885,0.105326004326,-9.84332370758
149,1348766470,348592996,1348766470,348242044,0.428074324703,0.903490033385,0.0175433931642,0.0122621964058,-0.0397417061031,0.0121229328215,0.0058382707648,-0.108933731914,0.115059562027,-9.84898948669
150,1348766470,359688997,1348766470,359275102,0.428112974403,0.903468683826,0.0176879748189,0.0122781937171,-0.0482815280557,-0.000301373365801,0.00566116021946,-0.111348614097,0.110186956823,-9.84910011292
151,1348766470,368705034,1348766470,368269920,0.428127965202,0.903460225193,0.0177118217547,0.0123433494358,-0.0378878079355,-0.00741620361805,0.00477231806144,-0.0942514315248,0.10772729665,-9.83832836151
152,1348766470,379508018,1348766470,379225015,0.428150707574,0.903447044886,0.0179081208779,0.012235517845,-0.0511765219271,0.00690649170429,0.0110546369106,-0.101534731686,0.114926673472,-9.82908439636
153,1348766470,388537883,1348766470,388237953,0.428224384601,0.903409807098,0.0180002652254,0.0122714027109,-0.0481167696416,0.00350114982575,0.0181750115007,-0.096709728241,0.107758723199,-9.84334087372
154,1348766470,399549961,1348766470,399259090,0.428261071158,0.903390449672,0.0180864025964,0.0122895245302,-0.0412823967636,-0.00654778955504,0.00386757263914,-0.101587750018,0.110177069902,-9.8436498642
155,1348766470,408519029,1348766470,408227920,0.428291583423,0.903373983295,0.018119087048,0.0123880813582,-0.0432228408754,-0.0126664657146,0.00825060997158,-0.091913677752,0.107888899744,-9.85764980316
156,1348766470,419687986,1348766470,419286012,0.42834769302,0.903345045434,0.0181392750329,0.0125279477901,-0.0435943603516,-0.0234763678163,0.000119341617392,-0.0918509587646,0.0981194451451,-9.85271263123
157,1348766470,428757905,1348766470,428299903,0.428373485468,0.903331294771,0.018188613375,0.012565953152,-0.0415002219379,-0.000260443659499,0.00748169468716,-0.0918268486857,0.0980808362365,-9.84784603119
158,1348766470,439538955,1348766470,439234018,0.428398114772,0.903318754033,0.0182329655467,0.0125635519966,-0.0222638770938,0.00138662359677,0.0013991856249,-0.0918413549662,0.107773080468,-9.84304904938
159,1348766470,448539018,1348766470,448194980,0.428408155099,0.903312390314,0.018261614922,0.012636913032,-0.0412757769227,-0.00832222308964,0.00385034224018,-0.101602211595,0.107782967389,-9.8484992981
160,1348766470,459583997,1348766470,459208011,0.42845705212,0.903289012078,0.0182906069078,0.0126082848692,-0.0291521232575,0.00493797659874,0.00138104474172,-0.0893927067518,0.110174365342,-9.83805465698
161,1348766470,468502044,1348766470,468220949,0.428515117485,0.903260413687,0.0183229235044,0.0126368361232,-0.038457583636,-0.000123047269881,0.0146504724398,-0.101607061923,0.115042500198,-9.84368515015
162,1348766470,479581117,1348766470,479285001,0.428586037527,0.903223922385,0.0184198441643,0.0126989688176,-0.0289119128138,0.00161526084412,0.0129501428455,-0.099129460752,0.110145643353,-9.83863735199
163,1348766470,488780975,1348766470,488343000,0.428583353727,0.903224061458,0.0184531606819,0.0127312439604,-0.0394448451698,-0.000388272688724,0.00126189750154,-0.101611860096,0.110215678811,-9.84851646423
164,1348766470,499541044,1348766470,499234914,0.428599773118,0.903214716362,0.0184754380764,0.0128089350964,-0.0355543419719,-0.0147347217426,-0.00597147876397,-0.108842097223,0.110078319907,-9.83435440063
165,1348766470,508457899,1348766470,508215904,0.428625539228,0.903200946951,0.0184958415566,0.012887994164,-0.0414678305387,-0.0100296260789,0.00740935467184,-0.111387223005,0.119917809963,-9.84916973114
166,1348766470,519577980,1348766470,519244909,0.428698331079,0.903163628949,0.0186185189889,0.0129054648658,-0.0415466986597,0.012161933817,0.00759571604431,-0.0966277047992,0.0931238383055,-9.83836936951
167,1348766470,528618097,1348766470,528286933,0.42872399846,0.903151243262,0.0186230556095,0.0129130452496,-0.032910592854,0.00151372316759,0.00755821540952,-0.0869006067514,0.0955852717161,-9.83780384064
168,1348766470,539429903,1348766470,539203882,0.428779253605,0.903122406053,0.0187617514321,0.0128944967558,-0.0334977321327,-5.45638467884e-05,0.0182577930391,-0.106485083699,0.117460846901,-9.84399414062
169,1348766470,548599958,1348766470,548276901,0.428812427341,0.903105843816,0.0187884481572,0.0129124451576,-0.0381691306829,0.00154504308011,0.00931542180479,-0.101563647389,0.110138468444,-9.83878326416
170,1348766470,559771060,1348766470,559277057,0.428877837727,0.90307308325,0.0188464186485,0.0129467803242,-0.03485904634,-0.0143588650972,0.0127576524392,-0.101549141109,0.100446224213,-9.84358024597
171,1348766470,568557024,1348766470,568249940,0.428908283645,0.903058796871,0.0188169068983,0.0129775818281,-0.0295348558575,-0.00554822385311,0.00848070438951,-0.0968470871449,0.115112915635,-9.85295581818
172,1348766470,579586982,1348766470,579272985,0.428974345268,0.903025372921,0.0189388323691,0.0129424723794,-0.0415961444378,0.0139566892758,0.00768436444923,-0.109005987644,0.115057706833,-9.85125160217
173,1348766470,588675975,1348766470,588298082,0.42900727872,0.903009175837,0.0189659460135,0.0129412538408,-0.0373546034098,0.00511822430417,0.00941157527268,-0.101628638804,0.105290472507,-9.84344387054
174,1348766470,599548101,1348766470,599256992,0.429020622996,0.903000187006,0.0191128305048,0.0129099581975,-0.0311699844897,0.0112628657371,0.0059387520887,-0.0918990820646,0.0980789512396,-9.85010814667
175,1348766470,608582019,1348766470,608288049,0.42906121412,0.902979772799,0.019150451224,0.012933084406,-0.0417382083833,0.0016042503994,0.0111353034154,-0.101676903665,0.117454051971,-9.84353160858
176,1348766470,619581937,1348766470,619240045,0.429110190238,0.902953321863,0.0192286613209,0.0130384720734,-0.0395051464438,-0.00567232398316,0.00216595479287,-0.10171546787,0.115098550916,-9.85324764252
177,1348766470,628650903,1348766470,628259897,0.429133478512,0.902939443468,0.0193100051574,0.0131126942248,-0.054402526468,-0.00378550030291,0.00741140404716,-0.091858074069,0.0907614976168,-9.8476228714
178,1348766470,639678955,1348766470,639221906,0.429153193514,0.902925458819,0.0194942922956,0.013157692834,-0.0465194359422,0.00501713715494,0.00399246858433,-0.0895156040788,0.119922675192,-9.84282016754
179,1348766470,648492097,1348766470,648230075,0.429121877748,0.902940245278,0.0194880417626,0.0131735994718,-0.0339782573283,-0.000489555764943,-0.00488230632618,-0.0967988669872,0.115035697818,-9.8432226181
180,1348766470,659624099,1348766470,659244060,0.429206254238,0.902897282821,0.0196030394906,0.0131988196714,-0.0366960838437,0.00696772197261,0.0129960430786,-0.0869945809245,0.110121771693,-9.8328704834
181,1348766470,668493986,1348766470,668199062,0.429229964806,0.902885408042,0.0196459515638,0.0131762606556,-0.0398645550013,0.0104066496715,0.00766541808844,-0.109027691185,0.11750973016,-9.85370254517
182,1348766470,679593086,1348766470,679260015,0.429326881012,0.902835365817,0.0198270605304,0.0131764616058,-0.0439046286047,0.0159432534128,0.0183884687722,-0.111404016614,0.114992618561,-9.84409713745
183,1348766470,688709974,1348766470,688308000,0.429335437051,0.902831761088,0.0198148203391,0.0131630755657,-0.0310465507209,0.00412756903097,0.00409338530153,-0.0919400975108,0.105396404862,-9.85259437561
184,1348766470,699528932,1348766470,699229001,0.429478083396,0.902760275335,0.0199250026778,0.0132459589002,-0.0408567376435,-0.00694514997303,0.0271035507321,-0.0821647644043,0.107780627906,-9.84229564667
185,1348766470,708507061,1348766470,708229064,0.429473541243,0.902760472657,0.0199587472723,0.0133287203792,-0.048025265336,-0.00923467893153,0.00116643635556,-0.086994536221,0.098035402596,-9.84251689911
186,1348766470,719604969,1348766470,719238996,0.429540678377,0.902724479153,0.0200630016931,0.0134460522166,-0.0506235808134,-0.00568330101669,0.00118225382175,-0.0870717167854,0.105410762131,-9.85230255127
187,1348766470,728554010,1348766470,728219032,0.42954011289,0.902724472306,0.0200835005961,0.0134339689537,-0.0378363840282,0.00674943625927,0.00229530991055,-0.108993932605,0.115038402379,-9.84881782532
188,1348766470,739554882,1348766470,739221096,0.429561065247,0.902710379368,0.0202539626849,0.0134550808681,-0.0416289456189,-0.000207871256862,0.00933278910816,-0.108936019242,0.100442104042,-9.84871292114
189,1348766470,748549938,1348766470,748253107,0.429575471055,0.902702125397,0.0203127469216,0.0134603039957,-0.0466164499521,0.00683081476018,0.00578047148883,-0.0796895623207,0.100470349193,-9.83966350555
190,1348766470,759783983,1348766470,759306907,0.42965404024,0.902662726929,0.0204292643189,0.0134183559724,-0.0368428900838,0.00702500715852,0.0156644936651,-0.0772746801376,0.105342969298,-9.83955287933
191,1348766470,768498897,1348766470,768249034,0.429678215032,0.902650735256,0.0204176593928,0.0134685133957,-0.0380761064589,-0.00734743382782,0.00752417137846,-0.12123966217,0.124791286886,-9.85691738129
192,1348766470,779519081,1348766470,779244899,0.42969327814,0.902640811481,0.0205092837025,0.0135137504931,-0.0324703715742,0.00135698588565,-0.00128205562942,-0.0969050005078,0.129709213972,-9.85306072235
193,1348766470,787611007,1348766470,787271022,0.42971182688,0.902630516269,0.0205500909339,0.0135495646252,-0.0466348752379,-0.000249498320045,0.00660328753293,-0.0748139321804,0.0956385806203,-9.84177017212
194,1348766470,804097890,1348766470,803792953,0.429798369334,0.902585223521,0.0206853048723,0.013615952471,-0.0403040349483,-7.09628366167e-05,0.0164891462773,-0.121140778065,0.114963896573,-9.84468078613
195,1348766470,807478904,1348766470,807194948,0.429869425019,0.902550218397,0.0207170477225,0.0136449492349,-0.0446985252202,-2.7007132303e-05,0.0182299818844,-0.0992475152016,0.112634405494,-9.84821796417
196,1348766470,818614006,1348766470,818234920,0.429981279732,0.902494440617,0.0207861203987,0.0137047778242,-0.0300812479109,-1.88039230125e-05,0.0183169394732,-0.0626140683889,0.100462704897,-9.83134269714
197,1348766470,827702999,1348766470,827316045,0.430027558165,0.902471029302,0.0208357629338,0.0137190186016,-0.0470100715756,0.00429835775867,0.012916687876,-0.118812717497,0.129644587636,-9.85437297821
198,1348766470,838532924,1348766470,838229894,0.430110415478,0.902427802643,0.0209728811945,0.0137560811369,-0.038684502244,-2.78165571217e-05,0.0182758811861,-0.0968181788921,0.119901135564,-9.84325790405
199,1348766470,847584962,1348766470,847239971,0.430129082311,0.90241725528,0.0209940040247,0.0138319094297,-0.0474645569921,-0.00912730302662,0.00652737542987,-0.0821913257241,0.117492191494,-9.83993148804
200,1348766470,858522891,1348766470,858226060,0.430184879459,0.902388405373,0.0210719516766,0.0138603096988,-0.0398699603975,-0.0108580552042,0.00925267487764,-0.106535635889,0.11500697583,-9.84380531311
201,1348766470,867513895,1348766470,867221117,0.430264085039,0.902350405348,0.0210729364337,0.0138742366836,-0.0387773923576,1.03222701e-05,0.0200495626777,-0.0919087380171,0.100511670113,-9.85012626648
202,1348766470,878524065,1348766470,878225088,0.430292517256,0.902332075706,0.0212200097001,0.0139601552431,-0.0404716953635,0.0005920965923,0.00396272679791,-0.0528555065393,0.0738666579127,-9.84760093689
203,1348766470,888009071,1348766470,887495040,0.43028240454,0.902336323477,0.0212394376898,0.0139677472764,-0.0420158691704,0.00317032309249,0.000433472305303,-0.0967867225409,0.090843655169,-9.86008167267
204,1348766470,898672103,1348766470,898271083,0.430306974372,0.902319430341,0.0213970470492,0.0140612877158,-0.0464790835977,-0.0047511565499,0.00391019089147,-0.108993932605,0.115038402379,-9.84881782532
205,1348766470,907515048,1348766470,907227993,0.430326203523,0.902309414385,0.0213690529398,0.0141577840801,-0.0414136573672,-0.0171160828322,0.00649433024228,-0.0870403572917,0.100526027381,-9.84983444214
206,1348766470,918534994,1348766470,918240070,0.430346537281,0.902297521895,0.0214373356012,0.0141943818096,-0.0300954096019,-0.0074354596436,0.00311805750243,-0.113893672824,0.11990877986,-9.85157775879
207,1348766470,927578926,1348766470,927254915,0.430387048962,0.902276662697,0.0215083350087,0.0141846242012,-0.0504181422293,0.0104973036796,0.0120467813686,-0.106569394469,0.117478303611,-9.84869003296
208,1348766470,938559055,1348766470,938261032,0.430448998055,0.902245914294,0.0215266285974,0.014232865992,-0.0293287150562,-0.00917091127485,0.00488765118644,-0.101754076779,0.124829418957,-9.85331726074
209,1348766470,947596073,1348766470,947240114,0.430550815452,0.902195661725,0.0215589041336,0.0142897491244,-0.0493637360632,-0.00520700216293,0.025280309841,-0.0919545963407,0.115088663995,-9.8477973938
210,1348766470,958609104,1348766470,958309888,0.430631496487,0.902153965189,0.0216880258394,0.0142956938368,-0.0400559455156,0.0122552476823,0.0112368064001,-0.0967168435454,0.100400790572,-9.83825111389
211,1348766470,967609882,1348766470,967264890,0.430669136836,0.902135620921,0.0217019781479,0.0142982581451,-0.0417429022491,0.00338094681501,0.011146648787,-0.0967795625329,0.110170267522,-9.84318733215
212,1348766470,978535890,1348766470,978250026,0.430753230445,0.902092181085,0.021797933439,0.0143597139268,-0.0307489819825,-9.97796669253e-05,0.0147591372952,-0.0967409536242,0.10043939203,-9.84311771393
213,1348766470,987550973,1348766470,987246036,0.430742893582,0.902097919682,0.0217833091236,0.0143314471411,-0.0342935137451,0.00672630127519,0.000511103717145,-0.0723989978433,0.0884248241782,-9.85130596161
214,1348766470,998503923,1348766470,998258113,0.430796001006,0.902068946347,0.0219570753344,0.0142936488322,-0.026811670512,0.012425724417,0.0202725362033,-0.116402640939,0.129690378904,-9.85909366608
215,1348766471,7493972,1348766471,7252931,0.430778594819,0.902079056407,0.0219057282891,0.0142589377289,-0.0273326057941,0.00488722138107,-0.00118138233665,-0.150476545095,0.146503061056,-9.84665775299
216,1348766471,18589973,1348766471,18254041,0.430890943745,0.902024865842,0.0219135269897,0.0142805229552,-0.0197714343667,-0.00358503893949,0.0183921549469,-0.111498095095,0.12964682281,-9.85150241852
217,1348766471,27766942,1348766471,27344942,0.430961536868,0.901993123125,0.0218660792106,0.0142279357418,-0.026680490002,0.00795956514776,0.0184277687222,-0.0918725728989,0.10045375675,-9.84282588959
218,1348766471,38541078,1348766471,38229942,0.431028495972,0.901958348093,0.0220065633368,0.0141874992393,-0.0333800166845,0.0141086131334,0.0148526756093,-0.0747801288962,0.0810808837414,-9.84653186798
219,1348766471,47709941,1348766471,47247886,0.431118950041,0.901916851102,0.0219650954901,0.0141414000102,-0.0286429394037,0.00716296955943,0.0228627566248,-0.0919376462698,0.0957234501839,-9.8598241806
220,1348766471,58547973,1348766471,58258056,0.431233176839,0.901856863413,0.0221489328423,0.0141975308169,-0.0493684560061,0.000115432987513,0.025315431878,-0.101498305798,0.0664056017995,-9.84803104401
221,1348766471,67487001,1348766471,67219018,0.431237667395,0.901855166812,0.0221476409148,0.0141708968235,-0.037908334285,0.00764825288206,0.0040311194025,-0.111372768879,0.122311912477,-9.84432029724
222,1348766471,78532934,1348766471,78279972,0.431307318142,0.90181920602,0.0222816368893,0.0141296011172,-0.0272792614996,0.0220287702978,0.0131477015093,-0.0967193767428,0.110191434622,-9.84335803986
223,1348766471,87515115,1348766471,87208986,0.431354122902,0.90180022511,0.0221915941073,0.0140537467891,-0.017797941342,0.00870274379849,0.0131339700893,-0.13597035408,0.168577462435,-9.86071109772
224,1348766471,98597049,1348766471,98278045,0.431397412734,0.901780708835,0.0222500039214,0.0138839037926,-0.00565477507189,0.031705737114,0.00984842143953,-0.140710756183,0.115178562701,-9.8776512146
225,1348766471,107502937,1348766471,107222080,0.431418928758,0.901774926402,0.0221778773368,0.0137051734111,-0.0124060055241,0.0290233828127,0.00796035956591,-0.0918461084366,0.0908599197865,-9.85752677917
226,1348766471,118602037,1348766471,118268966,0.431439947058,0.901765940481,0.0222227505203,0.0135613432274,-0.00782177131623,0.028031213209,0.00263706315309,-0.0870838686824,0.105547763407,-9.86707401276
227,1348766471,127587080,1348766471,127281904,0.43139585169,0.901789629075,0.0222005211732,0.0134246376693,-0.0253502111882,0.0260870456696,-0.00645005190745,-0.0624622106552,0.0713299512863,-9.83617115021
228,1348766471,138556003,1348766471,138220071,0.431443889777,0.901766445393,0.0222757325915,0.0133131391948,-0.015996389091,0.0193564947695,0.0113789951429,-0.0188108421862,0.0886426046491,-9.85313606262
229,1348766471,147587060,1348766471,147284984,0.431567168429,0.901707328762,0.0223156778981,0.0132545430592,-0.0436530411243,0.0162068102509,0.0307216383517,-0.00376654975116,-0.0159595441073,-9.8466424942
230,1348766471,158809900,1348766471,158299922,0.4317097012,0.901634511861,0.0224567891252,0.0133279230559,-0.046064760536,-0.00513512594625,0.028754349798,-0.0210134126246,0.0423366799951,-9.84321594238
231,1348766471,167556047,1348766471,167278051,0.43185094875,0.901567823115,0.0224270531188,0.013313364541,-0.0352195501328,0.0020573285874,0.0342705920339,-0.0575648322701,0.0519598275423,-9.84547233582
232,1348766471,178473949,1348766471,178216934,0.431947315787,0.901514613967,0.0226314426106,0.0134437715386,-0.0576045326889,-0.00708711706102,0.0197412781417,-0.0234910603613,0.0593198798597,-9.83861732483
233,1348766471,187556028,1348766471,187235116,0.432054590536,0.901460937872,0.0226853969385,0.0135048529234,-0.05715989694,-0.00428697932512,0.0269215833396,-0.0382602289319,0.0885465592146,-9.84943580627
234,1348766471,198586940,1348766471,198291063,0.432111337897,0.901430366293,0.0227905071014,0.013552828932,-0.0346281975508,0.00328492978588,0.00756109831855,-0.0965312197804,0.0808830633759,-9.8285484314
235,1348766471,207613945,1348766471,207284927,0.432099459655,0.901436762387,0.0227699406541,0.0135406863228,-0.0376849733293,0.00316259264946,0.000384023733204,-0.0431093461812,0.0957531183958,-9.84004592896
236,1348766471,218642950,1348766471,218260049,0.432033212177,0.901463948143,0.0229440221785,0.0135508531152,-0.0421245917678,0.0073327566497,-0.0129868378863,-0.0479343049228,0.0908347293735,-9.83543586731
237,1348766471,227716922,1348766471,227300882,0.43205668565,0.901453502277,0.022948587223,0.0134894759436,-0.0381688773632,0.0139606865123,0.00852264277637,-0.0771952196956,0.100498721004,-9.83968925476
238,1348766471,238537073,1348766471,238253116,0.432117635888,0.901419111467,0.0230968884347,0.0135818990688,-0.046829238534,-0.00550319347531,0.0109520135447,-0.0528606437147,0.117502987385,-9.82618618011
239,1348766471,247751951,1348766471,247464895,0.43216122276,0.901398548587,0.023098516782,0.0135570155376,-0.0409617759287,0.00695649534464,0.0128881977871,-0.0577337741852,0.100575461984,-9.84095573425
240,1348766471,258508920,1348766471,258229970,0.432205746392,0.901374049607,0.0231655254579,0.0136518830607,-0.0328916125,-0.0162140317261,0.00828497670591,-0.0772434324026,0.100575938821,-9.84942245483
241,1348766471,267565011,1348766471,267261981,0.432279959229,0.901340470296,0.0230716501943,0.013678172839,-0.0283401757479,-0.010678214021,0.0190691575408,-0.0820852518082,0.090850032866,-9.85207748413
242,1348766471,278553962,1348766471,278263092,0.432371622188,0.901292359082,0.0232206474313,0.01369909921,-0.0421003773808,0.00528290495276,0.0182175319642,-0.0722665265203,0.0883302167058,-9.8368768692
243,1348766471,287535905,1348766471,287241935,0.432367989352,0.901295670688,0.0231699326211,0.0136817398683,-0.032621037215,0.00140793225728,0.0022066149395,-0.0918268039823,0.085994489491,-9.8574924469
244,1348766471,298527956,1348766471,298228025,0.432441799673,0.90125678592,0.0232415604211,0.0137886039114,-0.0298406109214,-0.0143007589504,0.0154529633,-0.0868522971869,0.0713353604078,-9.84736251831
245,1348766471,307559013,1348766471,307279109,0.432450336994,0.901254510161,0.0231790742826,0.0137747763424,-0.0310394782573,-0.000307649723254,0.00486737536266,-0.0723339989781,0.0811865106225,-9.85629081726
246,1348766471,318567037,1348766471,318232059,0.432483668103,0.901234058497,0.0232872723905,0.0138835000844,-0.0370866470039,-0.0100302016363,0.00568384118378,-0.0723025202751,0.076184026897,-9.8414850235
247,1348766471,327532052,1348766471,327223062,0.432495080048,0.901229210399,0.0232724508062,0.0138675553815,-0.0397249870002,0.00416772253811,0.00579946814105,-0.0796243995428,0.0810279175639,-9.84195709229
248,1348766471,338507890,1348766471,338224887,0.432571847409,0.901187809704,0.0234341667482,0.0138913030113,-0.0486336611211,0.00871084816754,0.0111322812736,-0.0894286856055,0.0859418511391,-9.85230922699
249,1348766471,347492933,1348766471,347224950,0.432583667565,0.901182992693,0.0234012430997,0.0138912223738,-0.0380036123097,-0.000261783308815,0.00577029166743,-0.0627948790789,0.100752256811,-9.86784362793
250,1348766471,358618021,1348766471,358273029,0.432647830092,0.901149329278,0.023530446559,0.0138585548467,-0.0298992283642,0.0140883084387,0.0139929773286,-0.0821454152465,0.090828821063,-9.85190677643
251,1348766471,367609024,1348766471,367301940,0.432687179353,0.9011305034,0.0235219890946,0.013868550565,-0.0434947088361,-0.000137425944558,0.0119703151286,-0.062720105052,0.0909634754062,-9.86047363281
252,1348766471,378504037,1348766471,378231048,0.432694717064,0.901123035908,0.0236378460579,0.0139215018911,-0.0375235266984,0.00400044489652,-0.00311633804813,-0.0529206283391,0.0812227204442,-9.85495376587
253,1348766471,387614965,1348766471,387275934,0.432690816823,0.90112666775,0.0235824909583,0.0139015045174,-0.0326488651335,0.0014343787916,0.0022606824059,-0.0772432759404,0.0883718580008,-9.84673023224
254,1348766471,398525953,1348766471,398217916,0.432700505764,0.901117093933,0.0236999627159,0.0140202389639,-0.039596196264,-0.0180337373167,0.00470890291035,-0.0724713727832,0.100627020001,-9.85625934601
255,1348766471,407613039,1348766471,407258987,0.432694474417,0.901118624878,0.0237328898354,0.0140522470316,-0.0532651916146,-0.000330872164341,0.00208526756614,-0.0577794015408,0.0908620133996,-9.84558200836
256,1348766471,418575048,1348766471,418287038,0.432764804633,0.901079174929,0.0239087240053,0.0141179777497,-0.0478460378945,0.00343073857948,0.0128557831049,-0.0626187771559,0.0714631378651,-9.85546684265
257,1348766471,427689075,1348766471,427253007,0.432764386648,0.901080534675,0.0238674254596,0.0141138825221,-0.0369833484292,-0.000317330443067,0.00309627875686,-0.0601581260562,0.0859314873815,-9.83839225769
258,1348766471,438636064,1348766471,438219070,0.432849274677,0.901035535978,0.023996634996,0.0141643857781,-0.0354206673801,-0.00527744786814,0.0218097046018,-0.0871054753661,0.107882089913,-9.85718727112
259,1348766471,447576045,1348766471,447236061,0.432917120157,0.901003682982,0.0239581242228,0.0141823345268,-0.0395264141262,-0.004454838112,0.0182122867554,-0.0725147873163,0.105531059206,-9.86116123199
260,1348766471,458554029,1348766471,458282947,0.433008776425,0.900955306047,0.0240772767144,0.0142555529811,-0.0370270498097,-0.00619850959629,0.0199948213995,-0.0796678140759,0.0859319642186,-9.84685897827
261,1348766471,467572927,1348766471,467252016,0.433044349606,0.900940076951,0.0240255446318,0.0142247046548,-0.0331409722567,0.00339007913135,0.0111858714372,-0.0674775540829,0.0811024308205,-9.84609508514
262,1348766471,478573083,1348766471,478245019,0.433079542894,0.900919609311,0.0241234859623,0.0142837148977,-0.0336010605097,-0.000305690162349,0.00402598781511,-0.0772674307227,0.100496836007,-9.84195137024
263,1348766471,487778902,1348766471,487298965,0.43308242748,0.900919973341,0.0240880463759,0.0142330132246,-0.0345019176602,0.00857122894377,0.00410101376474,-0.0749007612467,0.105446666479,-9.85157394409
264,1348766471,498651981,1348766471,498245000,0.433137139596,0.900890059732,0.0242163265568,0.0142438796471,-0.0350501313806,-9.50828762143e-05,0.0147238774225,-0.0895107090473,0.100576758385,-9.8572807312
265,1348766471,507580995,1348766471,507244110,0.43316065841,0.900881107186,0.0241525831815,0.014203078781,-0.0304239150137,0.00422199722379,0.00854297820479,-0.0748235359788,0.0859849303961,-9.85143375397
266,1348766471,518620014,1348766471,518269062,0.433166389417,0.900874506472,0.0242845656143,0.0142219035977,-0.0401192307472,0.0084310863167,-0.00308409216814,-0.072377294302,0.0859728083014,-9.84885501862
267,1348766471,527524948,1348766471,527234077,0.433177257497,0.900870166422,0.0242520129763,0.0142213467816,-0.0397185198963,-0.000266927003395,0.00576529512182,-0.0724641680717,0.107867263258,-9.84901237488
268,1348766471,538544893,1348766471,538214921,0.433256402676,0.900830078939,0.0243251690036,0.014224787239,-0.0238167401403,0.00874666497111,0.0130964256823,-0.0773204490542,0.0957472249866,-9.85651683807
269,1348766471,547549962,1348766471,547247886,0.433292737844,0.900816762641,0.0242164358287,0.0141466502126,-0.0194084029645,0.00694135576487,0.0113138547167,-0.0602038949728,0.0763357505202,-9.85535621643
270,1348766471,558749914,1348766471,558296918,0.433318925834,0.900798014482,0.0243739682544,0.0142672804373,-0.0473188459873,-0.00739650521427,0.00384611426853,-0.0626694411039,0.0812133029103,-9.85797023773
271,1348766471,567733049,1348766471,567305088,0.433329929983,0.900795091568,0.0243167567091,0.0142151373785,-0.0311511904001,0.00683668488637,0.00588125456125,-0.0602618120611,0.0909320488572,-9.85546112061
272,1348766471,578589916,1348766471,578277111,0.433364862937,0.90077538304,0.0244078695949,0.0142429204457,-0.0302643943578,0.000622314051725,0.0058304509148,-0.0675498768687,0.0812182500958,-9.86069488525
273,1348766471,587547063,1348766471,587238073,0.433335006586,0.900792321713,0.0243660682846,0.0141513224422,-0.0307019855827,0.0155297834426,-0.00294828996994,-0.0773300528526,0.0860935747623,-9.86618041992
274,1348766471,598551988,1348766471,598242998,0.43333992997,0.900785610166,0.0244922871192,0.014209767155,-0.0309327431023,0.00143459625542,0.00227403943427,-0.0772770345211,0.0908431857824,-9.85161495209
275,1348766471,607605934,1348766471,607276916,0.433282151302,0.900814262578,0.0244590525676,0.0142125454158,-0.0406073518097,-0.000567302340642,-0.00940833706409,-0.0724617168307,0.0981943011284,-9.85624217987
276,1348766471,618588924,1348766471,618249893,0.433296110287,0.900801746921,0.0246212599754,0.0142998989967,-0.0446276143193,-0.000349788489984,0.0012584318174,-0.0602714642882,0.0933647677302,-9.85547828674
277,1348766471,627662897,1348766471,627238035,0.433314743833,0.900794353496,0.024572243535,0.0142853188224,-0.0363737754524,0.00066192727536,0.00756520358846,-0.052891716361,0.0860109403729,-9.84525489807
278,1348766471,638541936,1348766471,638235092,0.433318894369,0.900790971106,0.0246328662468,0.014268288548,-0.0204479768872,0.00669554807246,-0.00118088733871,-0.0529399327934,0.0860881581903,-9.85498809814
279,1348766471,647411108,1348766471,647166967,0.433343212534,0.900783283084,0.0245118053648,0.0142235180294,-0.0209549702704,-0.000212798637222,0.00856728479266,-0.0626742914319,0.0884728506207,-9.85315608978
280,1348766471,658600091,1348766471,658231019,0.433367486767,0.90076488389,0.0247268455192,0.0142768510272,-0.0509193092585,0.0077239680104,0.00574863003567,-0.0724472180009,0.0885020419955,-9.86103916168
281,1348766471,667519092,1348766471,667221069,0.433338547597,0.900780297017,0.0246590072142,0.0143001061368,-0.0366151928902,-0.00754150236025,-0.00320883002132,-0.0626284778118,0.0859822183847,-9.84583854675
282,1348766471,678515911,1348766471,678217887,0.433411372522,0.900740286997,0.0247686120738,0.0144233631977,-0.03492211923,-0.00634063640609,0.012879030779,-0.0772674307227,0.100496836007,-9.84195137024
283,1348766471,687879085,1348766471,687498092,0.433454322998,0.900722058802,0.0246981848195,0.0143917451384,-0.0315126590431,0.00165128870867,0.0129652610049,-0.062604367733,0.0859436169267,-9.84097194672
284,1348766471,698690891,1348766471,698215961,0.4335339215,0.900678222321,0.0248364227298,0.0144993396962,-0.0420702248812,-0.0106677701697,0.0181316602975,-0.0724086537957,0.0908575430512,-9.85132312775
285,1348766471,707546949,1348766471,707236051,0.433495431831,0.90069894451,0.0247978248969,0.0144287844459,-0.0340272597969,0.0119444802403,-0.00478633353487,-0.0748862549663,0.0957544073462,-9.8563709259
286,1348766471,718586921,1348766471,718228101,0.433528832996,0.900678347961,0.0249219600826,0.0144969093771,-0.0397788584232,-0.00732823181897,0.00747235165909,-0.0626381263137,0.0884149372578,-9.84585571289
287,1348766471,727513074,1348766471,727221965,0.433594841168,0.900647360959,0.0248948782516,0.0144944798832,-0.0421142205596,-1.69903923961e-05,0.0182277075946,-0.0699744597077,0.0908647254109,-9.85117721558
288,1348766471,738542079,1348766471,738219976,0.433618328628,0.90063233218,0.0249781647069,0.0145821328527,-0.0292699616402,-0.00740137510002,0.00398091692477,-0.062604367733,0.0859436169267,-9.84097194672
289,1348766471,747580051,1348766471,747286081,0.433661247868,0.900613126359,0.0249135808846,0.0146024728978,-0.0374928824604,-0.00722918473184,0.0128506245092,-0.0820972025394,0.0907516106963,-9.84217262268
290,1348766471,758729934,1348766471,758241891,0.433695897575,0.900591871427,0.0250493512349,0.0146519469026,-0.038093868643,-0.000230498277233,0.00755550526083,-0.0699937716126,0.0957301557064,-9.85121250153
291,1348766471,767581939,1348766471,767218112,0.433737854629,0.900572987532,0.0250111864217,0.0146358512604,-0.0392528213561,0.00164505955763,0.0129209151492,-0.0919110924006,0.0860118865967,-9.86218833923
292,1348766471,778672933,1348766471,778333902,0.43377317478,0.900550591118,0.0251684503641,0.0146974414588,-0.0448780022562,0.00150512787513,0.00574369356036,-0.0870379060507,0.0908530727029,-9.85706424713
293,1348766471,787550926,1348766471,787225961,0.433813397599,0.90053234674,0.0251761175518,0.0146147748335,-0.0418908260763,0.0176271982491,0.0130354212597,-0.0674896091223,0.0811217278242,-9.84852790833
294,1348766471,798583030,1348766471,798250913,0.433866300863,0.900503686976,0.0252757668124,0.0146382488656,-0.0304676145315,0.00335452379659,0.00942506361753,-0.0626188665628,0.0956358760595,-9.8361749649
295,1348766471,807552099,1348766471,807255983,0.433888122736,0.900495484968,0.0252231151659,0.0145867392675,-0.033872038126,0.00688665593043,0.00853984989226,-0.0699551552534,0.0859992876649,-9.85114192963
296,1348766471,818622112,1348766471,818276882,0.433905028768,0.900482529081,0.0253937651328,0.0145875811286,-0.0379539728165,0.0138984369114,0.00411421013996,-0.0723941549659,0.0811652839184,-9.85612010956
297,1348766471,827748060,1348766471,827291965,0.433971730141,0.900453894423,0.0253091273445,0.0145179037508,-0.0266778953373,0.00708340341225,0.0184026174247,-0.0626960024238,0.0909248739481,-9.85560703278
298,1348766471,838532924,1348766471,838233947,0.434002301681,0.900436150977,0.0254384808417,0.0144783922653,-0.0296037234366,0.0122024975717,0.00863621663302,-0.0968036279082,0.0981224998832,-9.8577003479
299,1348766471,847517013,1348766471,847215890,0.433953617196,0.900464452374,0.0253090060574,0.0144042474613,-0.0183797255158,0.00478715775535,-0.00741187576205,-0.0748139321804,0.0956385806203,-9.84177017212
300,1348766471,858562946,1348766471,858232021,0.433913055836,0.900478467571,0.0254869553957,0.0144362225201,-0.0406926460564,0.0101095419377,-0.00843509845436,-0.0382769629359,0.0957076773047,-9.83471679688
301,1348766471,867522001,1348766471,867223978,0.433908574398,0.900485374525,0.0253526918477,0.0143763815513,-0.0188941396773,0.00143977755215,0.00234646489844,-0.0528289973736,0.0762414634228,-9.84031867981
302,1348766471,878582954,1348766471,878242015,0.433933379718,0.900468453625,0.0255250178487,0.0143826095218,-0.0398415252566,0.00865077786148,0.00761087192222,-0.0479871705174,0.0859673917294,-9.83766365051
303,1348766471,887669086,1348766471,887262105,0.433952058586,0.900461889193,0.0254384499587,0.0143834009534,-0.0329039283097,-0.00554765574634,0.0075223124586,-0.0430777296424,0.0665779262781,-9.84453201294
304,1348766471,898540019,1348766471,898233890,0.434002952357,0.900431686412,0.025625192957,0.0144071140692,-0.0469079762697,0.00783402752131,0.0111208083108,-0.0528676062822,0.0859723314643,-9.84038829803
305,1348766471,907541036,1348766471,907249927,0.43406894227,0.900401742993,0.0255691372024,0.0143900589176,-0.036957602948,-1.40917891258e-05,0.0182602051646,-0.0577914565802,0.0908813178539,-9.84801483154
306,1348766471,918581962,1348766471,918236970,0.434133512991,0.900366872874,0.0256923339364,0.0144045515743,-0.0365005806088,0.008688820526,0.00941142160445,-0.0431211441755,0.0714819654822,-9.84943389893
307,1348766471,927548885,1348766471,927258968,0.434119565035,0.900376522332,0.0256137845534,0.0143615921406,-0.0308390893042,0.00318165891804,0.000494529493153,-0.052891716361,0.0860109403729,-9.84525489807
308,1348766471,938517093,1348766471,938222885,0.434116440897,0.900372255489,0.0257779194045,0.014429697178,-0.037809304893,0.00143921619747,0.00221911282279,-0.0700130313635,0.0885092243552,-9.86089324951
309,1348766471,947535037,1348766471,947220087,0.434012376366,0.900423501149,0.0257611784279,0.0143922696712,-0.0426703915,0.00811816845089,-0.0191728509963,-0.0528000369668,0.0689433142543,-9.84026622772
310,1348766471,958714962,1348766471,958304882,0.434090564185,0.9003819802,0.025858925988,0.0144564090879,-0.0373324565589,0.0015925274929,0.00933947600424,-0.02852569893,0.0860441401601,-9.83893013
311,1348766471,967720031,1348766471,967266082,0.434095227317,0.90038012004,0.025842612134,0.0144614126791,-0.0465270392597,-0.00027536356356,0.00479914201424,-0.0430440157652,0.0761929750443,-9.83000183105
312,1348766471,978466987,1348766471,978193998,0.434129499347,0.900358638135,0.0259866704685,0.0145118396496,-0.0373267419636,-0.00018354083295,0.00932530872524,-0.0334181897342,0.0860683843493,-9.84408855438
313,1348766471,987569093,1348766471,987231969,0.434151626689,0.900350616092,0.0259092212601,0.0144860415247,-0.0329775102437,-0.000205918069696,0.00846804771572,-0.0430994853377,0.0811163187027,-9.83733654022
314,1348766471,998568058,1348766471,998260021,0.434187613683,0.900327979341,0.026069387063,0.0145269679772,-0.0423213206232,0.00683684693649,0.00580232776701,-0.0626791417599,0.0957323908806,-9.84834194183
315,1348766472,7554054,1348766472,7222890,0.434169176836,0.900337711521,0.0260229540375,0.0145580548817,-0.0436427146196,-0.00748902233317,-0.00057520752307,-0.0675740763545,0.105429597199,-9.84626960754
316,1348766472,18588066,1348766472,18259048,0.434166841479,0.90033462699,0.0261527122019,0.0145859126211,-0.0367616377771,0.00314334966242,-0.00132484082133,-0.0675643831491,0.0909105092287,-9.85589790344
317,1348766472,27673959,1348766472,27295112,0.434217429964,0.900312836989,0.0260666739169,0.0145790115785,-0.0333030894399,-0.00452704029158,0.0146813560277,-0.0674727484584,0.0859292522073,-9.84126281738
318,1348766472,38660049,1348766472,38268089,0.434197842148,0.900316998989,0.0262125560809,0.0146436712944,-0.0399963185191,0.000408723542932,-0.00493503594771,-0.0724713727832,0.100627020001,-9.85625934601
319,1348766472,47511100,1348766472,47246932,0.434199386487,0.90031830633,0.0261511702498,0.014627247008,-0.0370476953685,-0.000306157278828,0.0040044314228,-0.0920220315456,0.0958585739136,-9.87685775757
320,1348766472,58538913,1348766472,58237075,0.434248170993,0.900289551596,0.0262984486178,0.0146847157425,-0.0390326529741,0.0051030269824,0.00850937422365,-0.0993053838611,0.115144342184,-9.85796833038
321,1348766472,67468881,1348766472,67219972,0.434225817103,0.900302427306,0.026226724081,0.0146846209675,-0.0367255806923,-0.00395436165854,-0.00139720132574,-0.0577407926321,0.0811311453581,-9.84551143646
322,1348766472,78592061,1348766472,78303098,0.434260647201,0.900282827573,0.0263295503265,0.0146722680538,-0.0301972907037,0.0103537319228,0.00412464141846,-0.0479413084686,0.0713903903961,-9.83999156952
323,1348766472,87702989,1348766472,87243080,0.434260873237,0.900284789198,0.026298182692,0.014601297901,-0.0379556193948,0.0121277375147,0.00410401634872,-0.0530027449131,0.120030373335,-9.84063339233
324,1348766472,98696947,1348766472,98277091,0.434299670831,0.900260333101,0.0265175670328,0.0145584064961,-0.0400973670185,0.0255880318582,0.0113168656826,-0.0381562821567,0.0592555291951,-9.83932113647
325,1348766472,107578039,1348766472,107280969,0.434349631456,0.900240206168,0.0264234623329,0.0144834212714,-0.026474358514,0.00701958872378,0.0148203102872,-0.038247961551,0.0763231515884,-9.8443107605
326,1348766472,118581056,1348766472,118242025,0.434407465572,0.9002070112,0.0265955214385,0.0144972094196,-0.0420207902789,0.00350672565401,0.0164542514831,-0.0430825352669,0.061751101166,-9.84936332703
327,1348766472,127537012,1348766472,127240896,0.434527596089,0.900149130249,0.0265990537861,0.0144845396001,-0.0496735014021,0.00378795526922,0.0306739043444,-0.0527951903641,0.0616837739944,-9.84508037567
328,1348766472,138519048,1348766472,138222932,0.434641471121,0.900088689243,0.0267635286288,0.0145209026781,-0.0405808836222,0.0124760074541,0.0209972839803,-0.0235849004239,0.0617699362338,-9.8433303833
329,1348766472,147511959,1348766472,147217035,0.434633600209,0.900094980742,0.0267252913355,0.0144366899242,-0.0361387804151,0.0138684576377,0.00233775144443,-0.0529254749417,0.0884822681546,-9.85013961792
330,1348766472,158664941,1348766472,158257961,0.434634643939,0.900088641354,0.0268922225515,0.0144904230509,-0.0462976507843,-0.000370247085812,0.00035940296948,-0.0675692334771,0.0981700569391,-9.85108375549
331,1348766472,167716026,1348766472,167275905,0.43456363241,0.900123969282,0.0268403319637,0.0145219106984,-0.0438696406782,-0.00771276839077,-0.0121820280328,-0.050563659519,0.100691638887,-9.85494804382
332,1348766472,178558111,1348766472,178227901,0.434595067441,0.900104292719,0.0269744622475,0.0145522496655,-0.0362961217761,0.00506847491488,0.00581688852981,-0.0407448709011,0.0860854536295,-9.84939289093
333,1348766472,187575101,1348766472,187237024,0.434629500581,0.900090555563,0.0268764788043,0.0145548582196,-0.033107098192,-0.00725408643484,0.0110898753628,-0.0505588538945,0.105518467724,-9.85011577606
334,1348766472,198566913,1348766472,198260068,0.434711560416,0.900045855797,0.027058638368,0.0145308910214,-0.0388418138027,0.0160028338432,0.0201678145677,-0.0432272776961,0.0861554890871,-9.85927200317
335,1348766472,207576036,1348766472,207250118,0.434689475466,0.900059290947,0.0269669241395,0.0145298899289,-0.0341384261847,-0.00572009989992,-0.00140928360634,-0.0285111982375,0.0763518735766,-9.84372711182
336,1348766472,218564987,1348766472,218238115,0.434763140576,0.900019830437,0.0270672232545,0.014583615527,-0.0348452068865,0.00162464240566,0.0111388359219,-0.0381852425635,0.0665536820889,-9.83937358856
337,1348766472,227679014,1348766472,227288961,0.434853355028,0.899979729002,0.0269723945215,0.014544309537,-0.0303692836314,0.000100359335192,0.0236402992159,-0.033389184624,0.066683858633,-9.85368251801
338,1348766472,238740921,1348766472,238298892,0.434930148675,0.899938662621,0.0270652243782,0.0146165290751,-0.0299558583647,-0.00537268957123,0.0164666734636,-0.0504044108093,0.0665949955583,-9.84983634949
339,1348766472,247479915,1348766472,247225999,0.434966504235,0.899923312628,0.0270234857311,0.0145568815826,-0.0383684709668,0.00874157715589,0.0120746344328,-0.0504767373204,0.0667108148336,-9.8644361496
340,1348766472,258580923,1348766472,258232116,0.435019318038,0.89989437968,0.0271429613079,0.0145450336858,-0.0314388275146,0.00872519332916,0.0112267481163,-0.0382141545415,0.0617654621601,-9.84907245636
341,1348766472,267512083,1348766472,267215013,0.435065572232,0.899875033783,0.0270427428607,0.0145451535533,-0.0332392081618,-0.00719574326649,0.0137430783361,-0.038238260895,0.0618040673435,-9.8539390564
342,1348766472,278510093,1348766472,278214931,0.435110489004,0.899845389627,0.027258852427,0.0146318860559,-0.0512684695423,0.000780152331572,0.0127874873579,-0.0285014994442,0.0618327893317,-9.85335540771
343,1348766472,287889003,1348766472,287492990,0.435173545999,0.899814922373,0.0272717877648,0.0146061606789,-0.051577668637,0.00710286945105,0.0181849356741,-0.00889777764678,0.0592644773424,-9.82783794403
344,1348766472,298585891,1348766472,298238992,0.435163365425,0.899813188908,0.0274653608389,0.0146534778715,-0.0487518236041,0.00580114545301,-0.00229832599871,-0.0359054021537,0.0813115909696,-9.85879993439
345,1348766472,307538986,1348766472,307264089,0.435133116193,0.899831901387,0.027361513072,0.0145968503951,-0.0280575715005,0.00311641697772,-0.00306860962883,-0.0333168581128,0.0665680393577,-9.83908176422
346,1348766472,318577051,1348766472,318238973,0.43511708324,0.899833246344,0.0275666535322,0.0146058980794,-0.0470161661506,0.013765476644,-0.00309694116004,-0.0480474419892,0.086063914001,-9.84983062744
347,1348766472,328581094,1348766472,328249931,0.435094229712,0.899846892486,0.0274937494553,0.0145833842238,-0.0367424488068,-0.000398468313506,-0.00137253571302,-0.0431742109358,0.0788187235594,-9.85435295105
348,1348766472,338566064,1348766472,338248014,0.435123126538,0.899830538189,0.0275583519467,0.01460837198,-0.0233437493443,-0.000281368003925,0.0049840756692,-0.0578782856464,0.100689403713,-9.85781860352
349,1348766472,348776102,1348766472,348182916,0.435076709999,0.899856387796,0.0274636737761,0.0145768440355,-0.0321595966816,-0.000505037431139,-0.00668545812368,-0.0408075898886,0.0958549305797,-9.85432910919
350,1348766472,358719110,1348766472,358304023,0.43508833218,0.89984935532,0.0275323473266,0.0145344687413,-0.0197063758969,0.0120591465384,0.000651066598948,-0.043183863163,0.0812514424324,-9.85437011719
351,1348766472,368554115,1348766472,368254899,0.435065650824,0.89986493876,0.0274273368022,0.0144468909689,-0.0255865976214,0.00847967620939,-0.00123101961799,-0.0185501147062,0.0470142588019,-9.82103347778
352,1348766472,378496885,1348766472,378227949,0.435011014483,0.899888829354,0.0275297760846,0.0144091467782,-0.0224730018526,0.0153723563999,-0.0118411313742,-0.00907383579761,0.076467230916,-9.84986114502
353,1348766472,388549089,1348766472,388231992,0.434994101065,0.899901428351,0.0274829748948,0.0142210189742,-0.0275121685117,0.0315776839852,0.000774335989263,-0.0674292445183,0.0568524710834,-9.85565376282
354,1348766472,398581027,1348766472,398246049,0.434930240572,0.899928315416,0.0276230536905,0.0142014032176,-0.0268626064062,0.0136245377362,-0.0100892325863,-0.0334374941885,0.0909338146448,-9.84412384033
355,1348766472,408610105,1348766472,408279895,0.434962527309,0.899915786084,0.0275615913056,0.0141257381429,-0.0348569564521,0.00963213481009,0.0111642526463,0.0204669982195,0.00834079366177,-9.8354549408
356,1348766472,418682098,1348766472,418315887,0.435065253611,0.899861585263,0.0277036307894,0.0141372313067,-0.0337463729084,0.0107120834291,0.0219289958477,-0.040604930371,0.0568542405963,-9.84431648254
357,1348766472,428752899,1348766472,428332090,0.435128868957,0.899832388689,0.0276824978942,0.0140790261149,-0.0438525006175,0.00976259727031,0.01826550439,-0.0137372016907,0.0519519634545,-9.82807731628
358,1348766472,438529014,1348766472,438231945,0.435183186569,0.899800843923,0.0278407863805,0.0141041134583,-0.0408743098378,0.0069766966626,0.0110977264121,0.0349032878876,0.0328268669546,-9.84935474396
359,1348766472,448487043,1348766472,448218107,0.43519842526,0.899795329005,0.0278210648367,0.0140244395193,-0.0424432642758,0.0139877907932,0.00762338237837,-0.0188226532191,0.0764578133821,-9.85287761688
360,1348766472,458559989,1348766472,458234071,0.435334276499,0.899726388206,0.0279021499344,0.0140699715419,-0.0254212133586,0.00193886936177,0.0272747818381,-0.0529206283391,0.0812227204442,-9.85495376587
361,1348766472,468511104,1348766472,468223094,0.435341379561,0.899723497916,0.0279002269006,0.0140387990596,-0.0500413998961,0.00685812486336,0.00570515170693,-0.00411617895588,0.0570005476475,-9.84699630737
362,1348766472,478534936,1348766472,478219032,0.435358536839,0.899712358915,0.0280054546149,0.0140110716724,-0.0283905286342,0.0112157491967,0.00235244259238,-0.0188057944179,0.0812653377652,-9.84561252594
363,1348766472,488660097,1348766472,488272905,0.435383873782,0.899702252313,0.0279383222704,0.0140067763076,-0.0407509319484,-0.00374386366457,0.00928191188723,-0.0699599608779,0.0811724588275,-9.85597419739
364,1348766472,498589992,1348766472,498296022,0.435343957855,0.899717244872,0.0280874822557,0.0139860995115,-0.0329865030944,0.0154457464814,-0.00834356062114,-0.004277871456,0.100770153105,-9.84487724304
365,1348766472,508522987,1348766472,508228063,0.435273540649,0.899756248697,0.0279698915368,0.0139040608498,-0.025019204244,0.00649107713252,-0.0119296284392,-0.0334856659174,0.0789246633649,-9.86350345612
366,1348766472,518609046,1348766472,518237113,0.435238010598,0.899769970117,0.0280979687054,0.0138700814894,-0.025350920856,0.0172429978848,-0.00647904677317,-0.0431525036693,0.0763667076826,-9.85190200806
367,1348766472,528551101,1348766472,528220891,0.435182986592,0.899801804624,0.0279888366048,0.0137515672219,-0.0235207267106,0.0136687261984,-0.00829729996622,-0.00908588990569,0.0764865353703,-9.8522939682
368,1348766472,538544893,1348766472,538220882,0.43524242729,0.899769980647,0.0280981550339,0.0137297157953,-0.0313452556729,0.0113588767126,0.00945201609284,-0.0186634063721,0.0423611663282,-9.84776592255
369,1348766472,548702001,1348766472,548279047,0.43521860275,0.899784295433,0.0280447769322,0.0136557680258,-0.0376364402473,0.0102598350495,-0.00129874481354,-0.0138433352113,0.0666254833341,-9.83791542053
370,1348766472,558689117,1348766472,558278083,0.435200006195,0.899791710437,0.0281602381046,0.0135215911487,-0.0186284333467,0.0332616493106,-0.00452499696985,-0.0186923202127,0.0375729463995,-9.85746479034
371,1348766472,568533897,1348766472,568222045,0.43526935233,0.899763891639,0.02804770272,0.0133737278394,-0.0207464806736,0.0177654828876,0.0194051302969,-0.0187888462096,0.0619001165032,-9.85763931274
372,1348766472,578532934,1348766472,578224897,0.435216494874,0.899783206869,0.0282257379756,0.0134197966693,-0.04061569646,0.00655019748956,-0.00938594527543,-0.0186706576496,0.0472072958946,-9.84536743164
373,1348766472,588610887,1348766472,588231086,0.435231839292,0.899779108719,0.0281855942146,0.0132805820004,-0.0347374416888,0.0228656344116,0.00774593697861,-0.00899416673928,0.0473325364292,-9.85695075989
374,1348766472,598556041,1348766472,598253965,0.435217732897,0.899782038338,0.0283044742586,0.013291545935,-0.0321895629168,0.0110491141677,-0.006619757507,0.00806927587837,0.0473441891372,-9.85106372833
375,1348766472,608571052,1348766472,608243942,0.435177945034,0.899805656349,0.0282240882484,0.0131657814552,-0.0288689360023,0.017288973555,-0.00475006084889,-0.0137564158067,0.0326446555555,-9.84740447998
376,1348766472,618628025,1348766472,618253946,0.435181262846,0.899801246219,0.0283536511934,0.0130788468487,-0.028234841302,0.0244655609131,-0.00111846160144,0.00571226095781,0.039961643517,-9.84142398834
377,1348766472,628681898,1348766472,628274917,0.435101139434,0.899844153926,0.0282809962041,0.0129492224725,-0.0301059000194,0.0188918355852,-0.0136681515723,0.00574842374772,0.039903730154,-9.83412361145
378,1348766472,638725996,1348766472,638271093,0.435093999075,0.899841195391,0.0284572738351,0.0130084054282,-0.0419043153524,0.00671768095344,-0.0013847554801,0.00822362676263,0.0325934551656,-9.83149147034
379,1348766472,648499965,1348766472,648226976,0.435020114989,0.899877239512,0.0284771559934,0.0129423703201,-0.0525360666215,0.0153853464872,-0.0120825050399,0.0178470052779,0.0521418265998,-9.83834838867
380,1348766472,658581018,1348766472,658201932,0.435041339091,0.89986041567,0.0286874788851,0.0129342238632,-0.0465873368084,0.0175034850836,0.00490776635706,0.0398439951241,0.032725404948,-9.83446311951
381,1348766472,668531894,1348766472,668196916,0.434967934107,0.899897147218,0.0286834466442,0.0128561509215,-0.0473828427494,0.015385504812,-0.0120440321043,0.0202498361468,0.0570337437093,-9.84067153931
382,1348766472,678571939,1348766472,678268909,0.435013512719,0.899869308589,0.0288634980935,0.0128596146591,-0.0417557582259,0.0114106032997,0.0111425714567,0.0275717135519,0.0521898493171,-9.84019851685
383,1348766472,688674926,1348766472,688271045,0.434965866206,0.899893953184,0.0288218110569,0.0128402284718,-0.0458960570395,0.00129716191441,-0.00682154903188,0.0348694808781,0.0473845638335,-9.8445930481
384,1348766472,698697090,1348766472,698278903,0.43501268603,0.899865529778,0.0289822503196,0.0128848933815,-0.0399247705936,0.00693962490186,0.00933181215078,0.0348356738687,0.0619422569871,-9.83983135223
385,1348766472,708626031,1348766472,708303928,0.435029848054,0.899859394237,0.0289175274436,0.0128793832001,-0.0431998595595,-0.00374407996424,0.00740657001734,0.0399453267455,0.013225061819,-9.82945632935
386,1348766472,718647956,1348766472,718266010,0.435073869235,0.899832531616,0.029032781686,0.0130092636668,-0.0413603745401,-0.0108823655173,0.00557890627533,0.0301337912679,0.0229851212353,-9.83740997314
387,1348766472,728607892,1348766472,728252887,0.435107034419,0.899819237656,0.028964719226,0.0129712444739,-0.0399865880609,0.00164683640469,0.0110584888607,0.0252581574023,0.0278168916702,-9.83530330658
388,1348766472,738620042,1348766472,738286018,0.435080715853,0.899822561918,0.0292266549239,0.0130357354197,-0.0607178211212,0.00757684698328,-0.00330416089855,0.0154731776565,0.0278653856367,-9.84562015533
389,1348766472,748657941,1348766472,748260974,0.435022027755,0.89985130118,0.0291809279359,0.0131127639111,-0.0542661771178,-0.0165114942938,-0.00971427187324,0.0154393706471,0.042423080653,-9.8408575058
390,1348766472,764214038,1348766472,763760089,0.434970680264,0.899869052112,0.0293300129227,0.0132644903318,-0.0456384122372,-0.0147528089583,-0.0105264773592,0.0202185232192,0.0498321093619,-9.85278606415
391,1348766472,768230915,1348766472,767843961,0.434974229377,0.899871560001,0.0291917565099,0.0132829451446,-0.0326760299504,-0.0144797507674,0.00385815859772,-0.00418855063617,0.0692027434707,-9.85194969177
392,1348766472,778549909,1348766472,778230905,0.434958626273,0.899871726132,0.0293994982245,0.0133243927812,-0.0529109053314,0.00842299871147,-0.00499931722879,-0.00181223009713,0.0717198550701,-9.86155509949
393,1348766472,788573980,1348766472,788235902,0.434967240523,0.899868066933,0.0293735953666,0.0133474222782,-0.0534417703748,-0.00556755112484,0.0055809924379,-0.00915586017072,0.0911021381617,-9.85483264923
394,1348766472,798557996,1348766472,798254966,0.434949323381,0.899870817063,0.0294892515981,0.0134900974572,-0.0391525439918,-0.0164057221264,-0.00332723511383,-0.0333843827248,0.0715106874704,-9.84885025024
395,1348766472,808619976,1348766472,808322906,0.434939485729,0.899878048662,0.0293968155493,0.013526585851,-0.0428302958608,-0.013636414893,0.00109360623173,0.0203270576894,0.0375720076263,-9.84053134918
396,1348766472,818650960,1348766472,818281888,0.4349952966,0.899845295036,0.0295091812389,0.0136654732568,-0.0415556877851,-0.0143702616915,0.00913989450783,0.00563019094989,0.0666829198599,-9.83674907684
397,1348766472,828653097,1348766472,828255891,0.434949042075,0.899870825372,0.0294151434701,0.0136593475677,-0.0389979407191,-0.00582517823204,-0.00680308230221,-0.0309163853526,0.0569601766765,-9.85346698761
398,1348766472,838690996,1348766472,838361024,0.435018812148,0.899833925692,0.029473049983,0.0137433101888,-0.0280172005296,-0.0107559096068,0.0128424530849,-0.0138697996736,0.0521643050015,-9.85484409332
399,1348766472,848619937,1348766472,848267078,0.435060871243,0.899818435316,0.0293543529382,0.013680049051,-0.029788646847,0.00167598680127,0.0129352770746,0.00558201875538,0.05467376858,-9.85612869263
400,1348766472,858522891,1348766472,858221054,0.435049591155,0.899816521099,0.0295403806806,0.0137639929499,-0.0461943075061,0.00138358317781,-0.00143858802039,-0.0236042067409,0.0666353702545,-9.84336566925
401,1348766472,868516921,1348766472,868251085,0.43507096981,0.89980758514,0.0294809472525,0.0137998080357,-0.049255322665,-0.0108415521681,0.00823040772229,-0.00897495355457,0.0666398406029,-9.83762359619
402,1348766472,878545045,1348766472,878246068,0.435085575488,0.899796576654,0.0295847551594,0.0138349161555,-0.0276671145111,-0.000241167916101,0.00579628534615,0.0105323791504,0.0521395877004,-9.84121990204
403,1348766472,888631105,1348766472,888231992,0.43516229892,0.899761688445,0.0295291489171,0.0138096694609,-0.0448231585324,5.85387679166e-05,0.0208400841802,-0.00408481946215,0.0521158128977,-9.84452724457
404,1348766472,898525953,1348766472,898220062,0.435276274899,0.89969892607,0.0297705251935,0.0137885013308,-0.0495545789599,0.0214830394834,0.0272475946695,-0.00903277751058,0.0570634044707,-9.85702133179
405,1348766472,908500909,1348766472,908262968,0.435284667736,0.899694969758,0.0297451298077,0.0138364258355,-0.056839235127,-0.00999773945659,0.00548892933875,0.0154441744089,0.0472499057651,-9.83602619171
406,1348766472,918705940,1348766472,918227910,0.435387080651,0.899639937548,0.0298856369922,0.0138896173974,-0.0413412414491,0.0018192777643,0.0199827216566,0.010566140525,0.049668263644,-9.83633518219
407,1348766472,928545951,1348766472,928216934,0.43539658548,0.899639825953,0.0297803545168,0.0138248832493,-0.0328360199928,0.00330513087101,0.00579639337957,-0.00161446561106,0.0520650781691,-9.83708190918
408,1348766472,938545942,1348766472,938216924,0.435401809758,0.899632368765,0.0299274059286,0.0138280694062,-0.0343951843679,0.0103421658278,0.00227391347289,0.015328434296,0.0522697716951,-9.85552787781
409,1348766472,948626995,1348766472,948292970,0.43534761449,0.899662052648,0.0298273986326,0.0138192573759,-0.0388969890773,-0.00585471373051,-0.00859660748392,-0.0113994460553,0.0521135739982,-9.84739875793
410,1348766472,958678960,1348766472,958273887,0.435375741847,0.89964351456,0.0299452868629,0.0138848808093,-0.0386494584382,-0.000311982264975,0.00215353118256,0.000703984987922,0.0570921227336,-9.85643768311
411,1348766472,968549013,1348766472,968245983,0.435419108828,0.899625074052,0.0298307391127,0.0139661307656,-0.0442963019013,-0.0240609068424,0.0126016773283,0.000646069296636,0.0716884285212,-9.85654258728
412,1348766472,978564023,1348766472,978286981,0.435466298697,0.899598014267,0.0299256055165,0.0140347269553,-0.031368739903,-0.00722901942208,0.0110483849421,0.0226744208485,0.0473872683942,-9.85018920898
413,1348766472,988567113,1348766472,988238096,0.435461699873,0.899605401339,0.0297699709915,0.0140349083539,-0.0300087314099,-0.0127371866256,0.00210564979352,0.00553615763783,0.0692507624626,-9.85380077362
414,1348766472,998609066,1348766472,998272895,0.435459985315,0.899601734147,0.0298685338274,0.0141135323761,-0.0325459465384,-0.00921155512333,0.00123197131325,-0.0138529418036,0.0569718293846,-9.84757900238
415,1348766473,8634090,1348766473,8282899,0.435455326422,0.899608709487,0.0297196990127,0.0141268537172,-0.0325725972652,-0.0145147992298,0.00206957105547,-0.00168198824394,0.0570077300072,-9.8468503952
416,1348766473,18656969,1348766473,18285036,0.435549893011,0.899554860635,0.0299427005965,0.0141696184304,-0.0509292036295,0.0107273058966,0.0217828769237,-0.0040655140765,0.0472503751516,-9.84449291229
417,1348766473,28652906,1348766473,28312921,0.435487362064,0.899589684228,0.029831171702,0.0141159026353,-0.0336632356048,0.00120936089661,-0.0102834124118,-0.00396182807162,0.0422498174012,-9.82742404938
418,1348766473,38538932,1348766473,38245916,0.435482034182,0.899587877602,0.0299431461597,0.0141582616839,-0.0356026999652,0.00483451364562,-0.00669746100903,-0.00169159530196,0.0473540760577,-9.85651397705
419,1348766473,48571109,1348766473,48230886,0.435484688897,0.899592926359,0.029787577348,0.0140837784791,-0.0241341739893,0.000608340313192,0.0040451195091,0.00080531463027,0.0375917814672,-9.85143089294
420,1348766473,59613943,1348766473,59274911,0.435520674923,0.899571481705,0.0298793898429,0.014146133055,-0.0343479923904,-0.000314686563797,0.00218384340405,-0.00410167733207,0.0473082885146,-9.85179233551
421,1348766473,68500041,1348766473,68217992,0.435522873529,0.899574277026,0.0297672808046,0.0141370343145,-0.0378559529781,-0.0073811323382,0.00388298230246,-0.0114332074299,0.0545848980546,-9.85228252411
422,1348766473,79508066,1348766473,79220056,0.435563242934,0.899549717245,0.0298760431751,0.0142263717839,-0.0330784097314,-0.00901087932289,0.0110275791958,0.000786009361036,0.042457215488,-9.85146617889
423,1348766473,88658094,1348766473,88264942,0.435565990379,0.899553078214,0.0297397667903,0.0142152654364,-0.0335494615138,-0.00915192440152,0.00388914928772,0.00320089492016,0.0473298281431,-9.85135555267
424,1348766473,99591970,1348766473,99267959,0.435566842252,0.899546834868,0.0298912710661,0.0142663844012,-0.0403629951179,-0.000312902964652,0.0021385923028,-0.00166748650372,0.047315467149,-9.85164737701
425,1348766473,108572959,1348766473,108259916,0.435551468019,0.899556360319,0.0298283012959,0.0142669463558,-0.0479758866131,-0.0047805942595,0.000250979763223,0.0154441744089,0.0472499057651,-9.83602619171
426,1348766473,119580984,1348766473,119277000,0.435590057656,0.899530953835,0.0299934209639,0.0143443181608,-0.0482900068164,-0.000242011068622,0.00564945442602,-0.00407756818458,0.047269679606,-9.84692573547
427,1348766473,128514051,1348766473,128221035,0.435544347822,0.89955781537,0.0298632873465,0.014319286165,-0.0338343903422,-0.00581620587036,-0.00678446609527,0.000822172441985,0.042399302125,-9.844165802
428,1348766473,139554977,1348766473,139252901,0.435516224821,0.899563849719,0.0300568401875,0.0143904327585,-0.0470440126956,-0.000380402198061,-0.00147976865992,0.00561578013003,0.0522024445236,-9.85124492645
429,1348766473,148622035,1348766473,148271083,0.435510811132,0.899570842483,0.0299290711526,0.0143834433059,-0.0360332131386,-0.00918892305344,0.00209190649912,-0.00414509093389,0.052212331444,-9.8566942215
430,1348766473,159724950,1348766473,159274101,0.435465963735,0.899585035388,0.0301057163712,0.0144846255062,-0.0475004836917,-0.00407544523478,-0.00864514242858,-0.00414028763771,0.0570391565561,-9.85186290741
431,1348766473,168509006,1348766473,168222904,0.435499346251,0.899571607742,0.0300229096442,0.0144867821375,-0.045120883733,-0.00723512098193,0.0109610212967,-0.00414509093389,0.052212331444,-9.8566942215
432,1348766473,179495096,1348766473,179227113,0.435554002168,0.899538711532,0.0301870076365,0.0145451785917,-0.0417370162904,0.00518622715026,0.0111065525562,-0.0114621650428,0.0618830509484,-9.8523349762
433,1348766473,188664913,1348766473,188297033,0.435555357276,0.899542168529,0.030085558161,0.014500930204,-0.0378876961768,-0.00027824472636,0.00394521793351,-0.00416439631954,0.0570777654648,-9.85672950745
434,1348766473,199568986,1348766473,199240922,0.435569601685,0.899529081042,0.0302213854384,0.0146021337414,-0.0387631580234,-0.00735900737345,0.00476279528812,0.00318639306352,0.0570220910013,-9.84655857086
435,1348766473,208602905,1348766473,208250045,0.43561277772,0.899512569476,0.0300833976041,0.0146162385885,-0.0365911945701,-0.0143004236743,0.0127389077097,0.000790812890045,0.0472840406001,-9.84663486481
436,1348766473,219686031,1348766473,219221115,0.435649723049,0.899491481258,0.030118155983,0.0147407812129,-0.0309169236571,-0.0215777866542,0.00379312364385,0.0032443087548,0.0424257852137,-9.84645366669
437,1348766473,228666067,1348766473,228295087,0.435633113231,0.899504387918,0.030044981274,0.0145926650443,-0.0343369431794,0.0209492594004,0.000595063378569,-0.00407756818458,0.047269679606,-9.84692573547
438,1348766473,239700078,1348766473,239276885,0.435630168468,0.899500738404,0.0301679001051,0.0146518167363,-0.0358798243105,-0.000383905105991,-0.00139207649045,-0.00421261368319,0.0571549795568,-9.86646270752
439,1348766473,248473882,1348766473,248233079,0.435653837508,0.899491204482,0.0301318174619,0.0146075494518,-0.050231423229,0.00515779107809,0.0092517612502,0.00558682251722,0.0595005936921,-9.85129737854
440,1348766473,259577989,1348766473,259247064,0.435718603546,0.899454573906,0.0302402778785,0.014706923427,-0.0382857881486,-0.00899358652532,0.0118878558278,0.000766658515204,0.0594090186059,-9.84185504913
441,1348766473,268552064,1348766473,268219947,0.435776882602,0.899433356958,0.0300900511435,0.0145853969307,-0.0231362357736,0.00884370971471,0.0166183486581,0.000747398938984,0.0521880835295,-9.85153579712
442,1348766473,279556035,1348766473,279217958,0.435838499671,0.899395184647,0.0302753587312,0.0147141663589,-0.0537170730531,-0.00545684294775,0.010910147801,0.0056519433856,0.0521445311606,-9.84394454956
443,1348766473,288691997,1348766473,288304090,0.435849596961,0.899395380634,0.0301241258972,0.0146838401562,-0.0310781374574,-0.00734113389626,0.0057081617415,0.00561578013003,0.0522024445236,-9.85124492645
444,1348766473,299720048,1348766473,299273014,0.435826080792,0.89940218479,0.0302295465284,0.0147482817172,-0.0271805711091,-0.000423110934207,-0.00311328587122,-0.00408481946215,0.0521158128977,-9.84452724457
445,1348766473,308585882,1348766473,308257102,0.435883873224,0.899377753446,0.0301316304586,0.0147305979268,-0.041979379952,-0.00535337394103,0.0163483284414,0.000778758549131,0.0473033450544,-9.84906768799
446,1348766473,319638013,1348766473,319237947,0.435919501132,0.899353883334,0.030319822825,0.0147475221112,-0.0450439117849,0.0104629984125,0.00844426080585,0.00321535090916,0.0497239381075,-9.84650611877
447,1348766473,328504085,1348766473,328222990,0.435979355755,0.899330100862,0.0301628175852,0.0147504398101,-0.0333499573171,-0.0142332613468,0.0163357872516,-0.00895560253412,0.0496880374849,-9.84723472595
448,1348766473,339498996,1348766473,339226961,0.43602016953,0.899304592723,0.0302870231664,0.0148444433233,-0.0398521535099,-0.0090444907546,0.00919287465513,0.00814160238951,0.0472283661366,-9.83646392822
449,1348766473,348706960,1348766473,348246097,0.436032010048,0.899301649654,0.0302381277218,0.0147744636032,-0.0466555207968,0.00864449795336,0.00664322357625,-0.018653800711,0.0520148202777,-9.8381023407
450,1348766473,359708070,1348766473,359216928,0.436017856001,0.899302441105,0.0304078137162,0.0147957269462,-0.0426913350821,0.00845363363624,-0.00313866627403,-0.0065986327827,0.0691569522023,-9.84722900391
451,1348766473,368577957,1348766473,368269920,0.436003853398,0.899312935093,0.0303035126009,0.0147845094794,-0.0419605337083,-0.00656585209072,0.000297183083603,-0.0138481380418,0.0617986544967,-9.84274768829
452,1348766473,379623889,1348766473,379239082,0.435953282259,0.899332780706,0.0304387485061,0.0147908019914,-0.0337080657482,0.00831710826606,-0.0102198561653,0.0104310950264,0.0595535635948,-9.85587215424
453,1348766473,388598918,1348766473,388254880,0.435946830029,0.899340427642,0.0303328297419,0.0147335004718,-0.0377958118916,0.0014671505196,0.00216966075823,0.0153332380578,0.0570965968072,-9.85069656372
454,1348766473,399580955,1348766473,399281024,0.435980906977,0.899318292196,0.0304701448526,0.0147928477597,-0.0364082753658,0.000696212053299,0.00842083338648,-0.00405345950276,0.0472310744226,-9.84205913544
455,1348766473,408618927,1348766473,408220052,0.435965882501,0.899330787386,0.0303687760154,0.0146840593363,-0.0343035943806,0.0111841149628,0.000516400381457,-0.0114573612809,0.0667098760605,-9.84750366211
456,1348766473,419670104,1348766473,419295072,0.436036972181,0.899291446127,0.0304664927321,0.0147799402702,-0.0365753732622,-0.00722311530262,0.0119221433997,-0.0138529418036,0.0569718293846,-9.84757900238
457,1348766473,428670883,1348766473,428256034,0.436085269899,0.899270549576,0.0304157783907,0.014730799992,-0.0488007776439,0.00437648594379,0.0146050052717,0.00559647521004,0.0570678785443,-9.85127925873
458,1348766473,439541101,1348766473,439199924,0.436112703063,0.89925113858,0.0305732898863,0.0147774806751,-0.0414348319173,0.00419752858579,0.0057369438,0.00564954150468,0.0497311167419,-9.8463602066
459,1348766473,448571920,1348766473,448316097,0.436129481224,0.899247572365,0.0304864590599,0.0146783860821,-0.0381268709898,0.0104404957965,0.00761286448687,-0.00902797374874,0.0618902295828,-9.85218906403
460,1348766473,459521055,1348766473,459279060,0.436123588954,0.899241197762,0.0307079747891,0.0147818702822,-0.0547904334962,0.00316991191357,-0.00150570995174,0.000761900679208,0.0424958206713,-9.85633277893
461,1348766473,468511104,1348766473,468214988,0.436140101806,0.899238131999,0.0306203676793,0.0146624226746,-0.0364125557244,0.0139964129776,0.00764042185619,0.0105661861598,0.0375818945467,-9.8459815979
462,1348766473,479511976,1348766473,479217052,0.43616748128,0.899218533956,0.0308174093249,0.0146370675689,-0.0450143329799,0.0157749447972,0.00759119354188,0.0154104586691,0.0376348607242,-9.8505563736
463,1348766473,488668918,1348766473,488269090,0.436153522943,0.899231338636,0.030687633448,0.0145386791799,-0.0308480467647,0.00674846582115,0.000497903733049,-0.00415478926152,0.066731415689,-9.8470659256
464,1348766473,499687910,1348766473,499356031,0.436118291399,0.899245698427,0.030718754586,0.014641307455,-0.022493571043,-0.0147482315078,-0.00944448914379,-0.00663239415735,0.071628279984,-9.85211372375
465,1348766473,508527040,1348766473,508243083,0.436118090561,0.899252009248,0.0305541601193,0.0146040490159,-0.0300743859261,-0.00739616155624,0.00304361968301,0.000728093727957,0.0570535175502,-9.85157108307
466,1348766473,519624948,1348766473,519254922,0.436193018619,0.899209637649,0.0306751316005,0.0147212217214,-0.0417722575366,-0.00897412840277,0.0127512477338,0.000747398938984,0.0521880835295,-9.85153579712
467,1348766473,528585910,1348766473,528253078,0.436182784649,0.899218750091,0.0305749036649,0.0146762776765,-0.0411737449467,-0.000333501899149,0.00124587269966,-0.00896525476128,0.0521207563579,-9.84725284576
468,1348766473,539608955,1348766473,539278984,0.436152122638,0.899228804658,0.0306758524341,0.0147605849567,-0.0321215130389,-0.00581522472203,-0.00677044689655,0.000742595468182,0.0473612546921,-9.85636806488
469,1348766473,548732042,1348766473,548276901,0.436139010596,0.899241461902,0.0305243198163,0.0146908996472,-0.0299557950348,-0.000350933696609,0.000433965906268,-0.00412098225206,0.0521737225354,-9.85182762146
470,1348766473,559726953,1348766473,559273004,0.436234571509,0.899189126387,0.0306475276338,0.0148000897697,-0.04044239223,-0.00971497781575,0.019883768633,0.0153211839497,0.0571159012616,-9.8531293869
471,1348766473,568563938,1348766473,568229913,0.436227672342,0.899197321234,0.0305501935871,0.0147064965475,-0.0378181412816,0.00857060123235,0.00222295289859,0.0251472219825,0.0376635827124,-9.84997367859
472,1348766473,579534053,1348766473,579222917,0.436234864331,0.899186635388,0.0307001010263,0.014833801921,-0.0429924800992,-0.0109213078395,0.00379634532146,0.0153911532834,0.042500294745,-9.85059165955
473,1348766473,588572978,1348766473,588227987,0.436214040841,0.899202011545,0.0305577355382,0.0148080317921,-0.0358390398324,-0.00748481042683,-0.00146180938464,0.000814921630081,0.0472454316914,-9.8417673111
474,1348766473,599612951,1348766473,599189996,0.436266439009,0.899169949255,0.0306948580875,0.0149272314373,-0.0434778220952,-0.01252651494,0.0127104464918,-0.00901347212493,0.0521979704499,-9.85698604584
475,1348766473,608622074,1348766473,608283996,0.436306753023,0.89915294247,0.0306461003809,0.014873461125,-0.0504187047482,0.00523005193099,0.0128099154681,0.0105468807742,0.0424473285675,-9.84601593018
476,1348766473,619657993,1348766473,619292020,0.436326918437,0.89913534315,0.0308477667733,0.0149288388618,-0.0482306368649,0.0094865038991,0.00395406782627,0.00570256263018,0.0544807314873,-9.83179473877
477,1348766473,628674983,1348766473,628298997,0.436315224898,0.899142269992,0.0308170934491,0.0149167552411,-0.0574943684042,-0.000327792658936,0.00111819745507,0.00328287365846,0.0447812899947,-9.83673763275
478,1348766473,639595031,1348766473,639278888,0.436367328004,0.89911199319,0.0309398547553,0.014963426744,-0.0406572185457,-0.000207328601391,0.00749106798321,-0.00412098225206,0.0521737225354,-9.85182762146
479,1348766473,649185895,1348766473,648230075,0.436354305574,0.89912273264,0.0308151843696,0.0149551352238,-0.0410898774862,-0.009218278341,0.000264236412477,0.015357346274,0.0570579916239,-9.84582996368
480,1348766473,659585952,1348766473,659279108,0.436360045104,0.899113956757,0.0309165357266,0.0151053507277,-0.0410516709089,-0.019874708727,0.000178403701284,-0.00906653888524,0.0595347285271,-9.86190509796
481,1348766473,668503999,1348766473,668215990,0.436303326646,0.899142899288,0.0309004292273,0.0150538131587,-0.0570074804127,0.00835094228387,-0.00859765987843,-0.00417889794335,0.0667700245976,-9.85193252563
482,1348766473,679539918,1348766473,679244995,0.436336203594,0.899123757824,0.0309545897112,0.0151327104642,-0.0242801830173,-0.0108598973602,0.00751030864194,0.000839030370116,0.047206826508,-9.83690071106
483,1348766473,688724040,1348766473,688281059,0.43630685438,0.899142521941,0.030835033586,0.015108102548,-0.040904622525,-0.00574445165694,-0.00326667842455,0.000814921630081,0.0472454316914,-9.8417673111
484,1348766473,699637889,1348766473,699274063,0.436346145525,0.899119920558,0.0309495260023,0.0150843157107,-0.0262951608747,0.0105083547533,0.0112714003772,-0.0139397699386,0.0667799115181,-9.85738277435
485,1348766473,708570003,1348766473,708247900,0.436357770066,0.899121353515,0.0307823860545,0.0150044282048,-0.0276705976576,-0.000247913179919,0.00580769451335,-0.0114187505096,0.056979008019,-9.84743309021
486,1348766473,719580888,1348766473,719237089,0.436421428962,0.899084366941,0.0309107956921,0.0151049718647,-0.0416925400496,-0.00545825529844,0.0109991570935,0.000696779752616,0.0498518832028,-9.86368560791
487,1348766473,728624105,1348766473,728214979,0.436433581437,0.899086549981,0.0307197831429,0.0150133127636,-0.0225137211382,-0.0002425188286,0.00583512149751,0.00562543282285,0.0497697256505,-9.85122680664
488,1348766473,744153976,1348766473,743808031,0.436457597457,0.899068802678,0.0308403573783,0.0151303017329,-0.0395603105426,-0.00915217678994,0.00384355359711,0.000819770735689,0.0399858877063,-9.84658241272
489,1348766473,748522996,1348766473,748208999,0.436482753817,0.899060742674,0.0307580939069,0.015050789412,-0.0433618798852,0.00693016080186,0.00931792706251,0.000747398938984,0.0521880835295,-9.85153579712
490,1348766473,759634017,1348766473,759226083,0.436532775973,0.899034543092,0.0308009506615,0.0150773759842,-0.0192206371576,-0.000197362925974,0.00854504853487,-0.0138095282018,0.0520677864552,-9.84267711639
491,1348766473,768578052,1348766473,768249988,0.436573818077,0.899016784824,0.0307501711613,0.0150515430174,-0.053839430213,-9.89671607385e-05,0.0127496588975,0.000761809409596,0.0666685625911,-9.83704090118
492,1348766473,779702901,1348766473,779274940,0.436559564818,0.899019317413,0.0308631349292,0.0150824462901,-0.0322624519467,0.0048748892732,-0.00489389942959,0.0202401839197,0.0594664588571,-9.84068870544
493,1348766473,788626909,1348766473,788285017,0.436627500881,0.898991424616,0.0307206556285,0.0150693483425,-0.0386177264154,-0.0106413383037,0.0181059073657,0.00808373186737,0.0497382991016,-9.84621429443
494,1348766473,799567937,1348766473,799253940,0.436633062455,0.898983695431,0.0308290438767,0.0151477448337,-0.0344990342855,-0.0108910948038,0.00565069867298,0.00563988881186,0.0521638356149,-9.84637737274
495,1348766473,808659076,1348766473,808311939,0.436595127993,0.899007161277,0.0307183276868,0.0150732388759,-0.039135042578,0.00397592689842,-0.00493426574394,-0.0187285728753,0.0618035979569,-9.84547233582
496,1348766473,819638013,1348766473,819281101,0.436637049014,0.898980725601,0.0308647760275,0.0151363148825,-0.0398107729852,0.00334659498185,0.00752254296094,0.00806927587837,0.0473441891372,-9.85106372833
497,1348766473,828691959,1348766473,828233003,0.436704055526,0.898952691777,0.0307518736297,0.0150979502763,-0.0420842021704,-0.00354289752431,0.0181477218866,0.000778758549131,0.0473033450544,-9.84906768799
498,1348766473,839627981,1348766473,839205026,0.436700726507,0.898948651801,0.0308713420846,0.015190692284,-0.037565484643,-0.00570967886597,-0.00146000238601,-0.00407512113452,0.0375967249274,-9.85415649414
499,1348766473,848675012,1348766473,848273992,0.436695118553,0.898955764022,0.0307674721045,0.0151416783841,-0.0429416783154,-0.000310110917781,0.00211729411967,0.00562543282285,0.0497697256505,-9.85122680664
500,1348766473,859728097,1348766473,859277009,0.436772205826,0.898911345354,0.0309216360719,0.015240926303,-0.0488356240094,-0.00889950431883,0.0162595026195,0.0105589348823,0.0424280241132,-9.84358310699
501,1348766473,868550062,1348766473,868218898,0.436832128412,0.898886337981,0.0307948453054,0.0152551788227,-0.0445196665823,-0.0142233930528,0.0162420105189,0.0153959570453,0.0473271235824,-9.84575939178
502,1348766473,879520893,1348766473,879225969,0.436854816164,0.898869738789,0.0309169289341,0.0153364203677,-0.0371012724936,-0.00556118180975,0.00567564275116,0.017777081579,0.0546710602939,-9.85053348541
503,1348766473,896286964,1348766473,895889997,0.436884067496,0.89886186927,0.0307366748858,0.015326720384,-0.0329683087766,-0.0143740195781,0.00920704659075,-0.00906413700432,0.0619481429458,-9.85948944092
504,1348766473,899610042,1348766473,899246931,0.436963952761,0.898813849782,0.0309477496633,0.0154403438937,-0.0542230531573,-0.00351038505323,0.0198597181588,-0.0139542715624,0.076472170651,-9.85258579254
505,1348766473,908564090,1348766473,908246040,0.437024223145,0.898791359881,0.0307814418001,0.0153760407064,-0.0308205224574,-0.00358125870116,0.016453884542,0.000737700669561,0.0667071714997,-9.84190750122
506,1348766473,919579029,1348766473,919231891,0.43698416066,0.898806618433,0.0308645722644,0.0154558782647,-0.0302051585168,-0.00588901573792,-0.0103191044182,0.000802821596153,0.0593511089683,-9.83455467224
507,1348766473,928574085,1348766473,928247928,0.436987182443,0.898810300665,0.0307435293763,0.01539744138,-0.0396033637226,-0.000278613879345,0.00393459061161,0.000761809409596,0.0666685625911,-9.83704090118
508,1348766473,939510107,1348766473,939217090,0.437051326697,0.898774849702,0.0308481479007,0.0154369409476,-0.033211234957,-9.97365859803e-05,0.0128924809396,0.00812229700387,0.0520938001573,-9.8364982605
509,1348766473,948529958,1348766473,948245048,0.437055381748,0.898778041248,0.0307069341302,0.0154178484661,-0.0395638570189,-0.00915260519832,0.00384807819501,0.000783562019933,0.0521301701665,-9.8442363739
510,1348766473,959774017,1348766473,959240913,0.437053863538,0.898774871659,0.0307804852502,0.015498779604,-0.0274320822209,-0.010966594331,0.00213912781328,-0.00900622177869,0.0473518408835,-9.85938453674
511,1348766473,968734025,1348766473,968240976,0.437063690333,0.898774466701,0.0306938392903,0.0154167709988,-0.0440261885524,0.00685934117064,0.00574521161616,0.000747398938984,0.0521880835295,-9.85153579712
512,1348766473,979664087,1348766473,979247093,0.437115212605,0.89874160451,0.0308653769438,0.0155289323121,-0.0509980358183,-0.0037410906516,0.00827720761299,-0.00891703739762,0.0520435385406,-9.83751869202
513,1348766473,988687038,1348766473,988262891,0.437126073088,0.898741219599,0.0307508081095,0.0154726927316,-0.0414107516408,-0.000242527356022,0.00569627713412,0.000858335581142,0.0423413924873,-9.83686637878
514,1348766473,999582052,1348766473,999290943,0.437208274133,0.898696370373,0.030905373623,0.0154472259013,-0.0335827730596,0.0177542213351,0.0184098519385,-0.00413063494489,0.0546064376831,-9.8518447876
515,1348766474,8152008,1348766474,7880926,0.437229378433,0.898689695287,0.0308455477204,0.0153575520702,-0.0484837256372,0.010461056605,0.00842495355755,-0.00411617895588,0.0570005476475,-9.84699630737
516,1348766474,18666028,1348766474,18291950,0.437194567457,0.898701352597,0.0309606971726,0.0154345151006,-0.0388059690595,-0.00411225901917,-0.0103678936139,-0.00165062875021,0.0521229915321,-9.84438228607
517,1348766474,27658939,1348766474,27239084,0.437189952092,0.898708427843,0.0308395533472,0.0153957611986,-0.0420687124133,-0.00386588531546,0.0020997216925,-0.0114235542715,0.0521521829069,-9.85226535797
518,1348766474,38567066,1348766474,38244962,0.437233944281,0.898679823297,0.0310171001431,0.0154593876287,-0.0477265045047,-0.000135245354613,0.0110070006922,-0.00412098225206,0.0521737225354,-9.85182762146
519,1348766474,47480106,1348766474,47221899,0.43727699943,0.898664789121,0.0308918842785,0.0153660030446,-0.0366754345596,0.00522410869598,0.0129215149209,0.00075460417429,0.0594283230603,-9.84428882599
520,1348766474,58608055,1348766474,58271884,0.437359990985,0.898616594265,0.0310619259679,0.0154793912174,-0.048092816025,-0.00531644001603,0.0180881358683,0.00320569844916,0.0521566569805,-9.84652328491
521,1348766474,67507982,1348766474,67225933,0.437451352424,0.898577967914,0.0309359417009,0.015392119802,-0.0372485816479,0.00366405653767,0.0235969573259,0.00566884689033,0.0448656827211,-9.84632492065
522,1348766474,78505039,1348766474,78219890,0.437462202348,0.898563284328,0.0311635183875,0.0154816244502,-0.0551718100905,0.0015393262729,0.00561033794656,0.0154055645689,0.0569807738066,-9.83609580994
523,1348766474,87591886,1348766474,87275981,0.437434110493,0.898581798312,0.0310344660571,0.0154600335247,-0.042621601373,-0.00751950871199,-0.00329191167839,-0.00413303682581,0.0521930269897,-9.85426139832
524,1348766474,98529100,1348766474,98222970,0.437466295878,0.898562360468,0.0311089782942,0.0155291915736,-0.0301337875426,-0.00560296000913,0.00395303824916,0.000684679776896,0.0619575604796,-9.85647296906
525,1348766474,107563018,1348766474,107201099,0.437509700334,0.898545249911,0.0310048004301,0.0155047839698,-0.0469460822642,-0.00542101915926,0.0127460705116,0.00801136065274,0.0619404911995,-9.85116863251
526,1348766474,118662118,1348766474,118243932,0.437536224777,0.89852573621,0.0311214682636,0.0156527182631,-0.041345641017,-0.0162133164704,0.00554687390104,0.0154586303979,0.0496440157294,-9.83117675781
527,1348766474,127608060,1348766474,127285957,0.437590361526,0.898504425752,0.0310296931963,0.0155444698892,-0.0419895350933,0.010603572242,0.0156008191407,0.00819222163409,0.0495645627379,-9.82431411743
528,1348766474,138515949,1348766474,138223886,0.437618331839,0.898485878519,0.0311527638029,0.0155829088539,-0.0337862223387,0.00156762229744,0.00755485007539,0.00324186147191,0.0520987436175,-9.83922386169
529,1348766474,147510051,1348766474,147223949,0.437647172576,0.898478617375,0.0309880673845,0.0155198626139,-0.0330057367682,-0.0037215615157,0.00929742120206,0.00319844740443,0.0570027865469,-9.84412479401
530,1348766474,158655881,1348766474,158222913,0.437668871098,0.898460990101,0.031155330931,0.0155933926138,-0.0473300218582,-0.000277090235613,0.00387068954296,0.000839030370116,0.047206826508,-9.83690071106
531,1348766474,167609930,1348766474,167253017,0.43766462007,0.898467131232,0.0310450716539,0.0155787663491,-0.0472015440464,-0.00741649745032,0.00202638283372,-0.0113126179203,0.0423054918647,-9.83759498596
532,1348766474,178503036,1348766474,178232908,0.437651891179,0.898468586317,0.0311615877914,0.0156197629522,-0.0308117717505,0.000538567721378,0.000426459795563,0.000824619841296,0.0327263437212,-9.85139656067
533,1348766474,187563896,1348766474,187233924,0.437631254824,0.89848194692,0.0310686475472,0.0156145765221,-0.0513113886118,-0.00748589029536,-0.00156653369777,-0.0114187505096,0.056979008019,-9.84743309021
534,1348766474,198546886,1348766474,198220968,0.437643190135,0.898471732166,0.0311509425334,0.0157036112569,-0.0324991345406,-0.00834173150361,0.000346684799297,-0.013833636418,0.0521063953638,-9.8475446701
535,1348766474,207524061,1348766474,207228899,0.437679601477,0.898459865336,0.031008060683,0.0156504634043,-0.038255430758,-0.00368561246432,0.0110393315554,0.000800465524662,0.0448513254523,-9.846616745
536,1348766474,218560934,1348766474,218230962,0.437712312756,0.898437417185,0.0311816667314,0.0156793598154,-0.0448446534574,0.0103956088424,0.00486990250647,0.0154393706471,0.042423080653,-9.8408575058
537,1348766474,227790117,1348766474,227257966,0.437763090656,0.898416894543,0.031093720058,0.0156121949703,-0.0470750965178,0.00348723493516,0.0146081419662,0.00076670415001,0.0473226495087,-9.85150146484
538,1348766474,238459110,1348766474,238163948,0.43774100086,0.898422164453,0.0312382031477,0.0156398609297,-0.0357968062162,0.00668402202427,-0.00312364683487,0.0154634797946,0.0423844717443,-9.83599090576
539,1348766474,247474908,1348766474,247234106,0.437776136162,0.898410003387,0.0311347740123,0.0155610496974,-0.0434442870319,0.00430371984839,0.0110740875825,0.00567365018651,0.0496925115585,-9.84149360657
540,1348766474,258596897,1348766474,258266925,0.437816231591,0.898385193105,0.0312933069043,0.0155473826629,-0.0348989926279,0.014065284282,0.0112286768854,0.000699181458913,0.0522652976215,-9.86126995087
541,1348766474,267569065,1348766474,267214059,0.437873530838,0.898362691269,0.0311460164576,0.0155297000955,-0.0410472564399,-0.0106982309371,0.0154185583815,0.000824528629892,0.0568990856409,-9.83210372925
542,1348766474,278529882,1348766474,278244018,0.437874757696,0.89835738981,0.0312498532326,0.015593056779,-0.0365379005671,-0.000455840432551,-0.00496442941949,0.000757005938794,0.061841737479,-9.84187221527
543,1348766474,287635087,1348766474,287223100,0.437864351361,0.898368890839,0.0310812553856,0.0155596061392,-0.0359361357987,-0.00922458618879,0.000312322663376,0.000737700669561,0.0667071714997,-9.84190750122
544,1348766474,298692941,1348766474,298300981,0.437851037822,0.898370159916,0.0312148990753,0.0155934128975,-0.0341752655804,0.00494055449963,-0.00133339338936,0.00321050174534,0.0569834820926,-9.84169197083
545,1348766474,307699918,1348766474,307297945,0.437842836354,0.898382581526,0.0309819000232,0.0155727240701,-0.0255888011307,-0.0172082521021,0.000304060726194,0.0153669994324,0.0546252727509,-9.84581184387
546,1348766474,318547010,1348766474,318221092,0.437901370424,0.898349316843,0.0311000233434,0.0156103573731,-0.034082327038,0.0016725360183,0.012911034748,0.00077386375051,0.0666492581367,-9.83460712433
547,1348766474,327663898,1348766474,327231884,0.437971833928,0.898320887216,0.0309249779689,0.0156173625817,-0.0385891385376,-0.0177423618734,0.0180422831327,0.00320089492016,0.0473298281431,-9.85135555267
548,1348766474,338540077,1348766474,338215112,0.437980541508,0.898309634407,0.0310713472584,0.0157295064086,-0.0462532937527,-0.00745184766129,0.000256455648923,-0.0114139476791,0.0618058368564,-9.84260177612
549,1348766474,347506046,1348766474,347222089,0.437952981807,0.898329441288,0.0309272391209,0.0156494894956,-0.0366456359625,0.00135528610554,-0.00316702760756,-0.00416919961572,0.0522509366274,-9.86156082153
550,1348766474,358647108,1348766474,358244895,0.437991276385,0.898306349261,0.0310261738631,0.0157073620782,-0.0328262038529,-0.000241462825215,0.00576223153621,0.00562058389187,0.0570292696357,-9.84641265869
551,1348766474,367590904,1348766474,367217063,0.438044890727,0.898285879038,0.0308723309799,0.015686057769,-0.0401394590735,-0.0107121588662,0.0145242586732,0.00566404312849,0.040038857609,-9.85115718842
552,1348766474,378612041,1348766474,378263950,0.438073355461,0.898265886323,0.0310343793169,0.0157162337627,-0.0382069014013,0.0069282790646,0.00935691408813,-0.00413543870673,0.049779612571,-9.85667705536
553,1348766474,387545108,1348766474,387234926,0.438116889853,0.898248742757,0.0309413457444,0.0156658891785,-0.0486882850528,-9.97279057628e-05,0.0127874240279,-0.0066202939488,0.0595226064324,-9.85932636261
554,1348766474,398504972,1348766474,398215055,0.438145153515,0.898228220543,0.0310897550067,0.0157580266657,-0.0432115457952,-0.00553483096883,0.00742698460817,-0.0113994460553,0.0521135739982,-9.84739875793
555,1348766474,407572031,1348766474,407247066,0.438128171941,0.898243724738,0.0308901477165,0.0157389546801,-0.0323810726404,-0.0145850880072,-0.00149436295033,0.000713591987733,0.0667457729578,-9.84677410126
556,1348766474,418620109,1348766474,418266057,0.438175712963,0.898213496606,0.0310752555517,0.0157761711572,-0.0444195047021,0.00700012454763,0.0128818275407,-0.00416439631954,0.0570777654648,-9.85672950745
557,1348766474,427716970,1348766474,427285909,0.438215946809,0.898199683162,0.0309502021672,0.0156907015897,-0.0400565229356,0.00342822493985,0.0119929565117,-0.0114187505096,0.056979008019,-9.84743309021
558,1348766474,438560009,1348766474,438230991,0.43826268729,0.898170974753,0.0310913246567,0.0157494943446,-0.0415224395692,0.00156507978681,0.00750520359725,-0.00896045099944,0.05694758147,-9.842420578
559,1348766474,447607040,1348766474,447236061,0.438283096991,0.898165556436,0.0309773714796,0.0157150431468,-0.0466486997902,-0.00463782716542,0.00739432917908,0.0154152624309,0.0424616858363,-9.84572505951
560,1348766474,458549022,1348766474,458249092,0.438329923046,0.898136466187,0.0311077564611,0.0158137331478,-0.0416714847088,-0.00901167560369,0.0109685910866,-0.00407756818458,0.047269679606,-9.84692573547
561,1348766474,467539072,1348766474,467253923,0.438339085548,0.89814011026,0.0309366861178,0.0156878894172,-0.028502849862,0.00684208981693,0.00495940586552,0.015456228517,0.0472306013107,-9.83359241486
562,1348766474,478517055,1348766474,478221893,0.438360737838,0.898121865207,0.0311198291129,0.0157649927452,-0.0499168075621,0.00149885762949,0.00386779941618,0.000814921630081,0.0472454316914,-9.8417673111
563,1348766474,487834930,1348766474,487481117,0.438396451578,0.898109007356,0.0310237608762,0.0156935786532,-0.0468850210309,0.00341436383314,0.0110465940088,-0.00903998315334,0.0498231649399,-9.86426830292
564,1348766474,498608112,1348766474,498214006,0.438353185354,0.8981232723,0.0311702054937,0.0157952819878,-0.0407162867486,-0.00581448152661,-0.00682982895523,0.000728093727957,0.0570535175502,-9.85157108307
565,1348766474,507551908,1348766474,507242918,0.438357441022,0.898126374187,0.0310554751632,0.0157266446606,-0.0439020842314,0.00149668415543,0.00391582585871,0.000824528629892,0.0568990856409,-9.83210372925
566,1348766474,518604993,1348766474,518244981,0.438425035908,0.898085696485,0.031214328676,0.0158504051756,-0.0503668859601,-0.00897278822958,0.0126899359748,0.000728093727957,0.0570535175502,-9.85157108307
567,1348766474,527503967,1348766474,527219057,0.438437467657,0.898084987528,0.0310958843464,0.0157793570031,-0.0431457422674,0.00153207266703,0.00570613751188,-0.00656722765416,0.05218584463,-9.85440731049
568,1348766474,538537025,1348766474,538218975,0.438530860923,0.898033504555,0.0312584113121,0.0157930502536,-0.0503748059273,0.010544330813,0.0110670784488,0.0783085972071,0.10613065958,-9.87158870697
569,1348766474,547560930,1348766474,547223091,0.438391898851,0.898107847232,0.0310865400458,0.015762765929,-0.0376946926117,-0.00968292821199,-0.0285378582776,0.259848594666,-0.40563750267,-9.98364543915
570,1348766474,558672904,1348766474,558274030,0.43838302148,0.898145157498,0.0303554886121,0.0153018578362,-0.0238113291562,0.00891222245991,-0.0661211833358,-0.023572223261,0.535532474518,-9.46228504181
571,1348766474,567542076,1348766474,567234039,0.438331056967,0.898172389349,0.0303193262217,0.01526374681,-0.0595260746777,0.00368839036673,-0.00834551919252,-0.602155983448,0.162776127458,-9.64031219482
572,1348766474,578706026,1348766474,578293085,0.439140882259,0.897799005151,0.0298498331524,0.0148734441087,-0.0472733080387,-0.00875488203019,0.112611629069,-0.00966939423233,0.0967590287328,-9.95463562012
573,1348766474,587512016,1348766474,587222099,0.439747427961,0.89750567191,0.0297389831566,0.0148782180402,-0.0487030670047,-0.0152920736,0.137492656708,0.159513071179,0.263574361801,-10.0575532913
574,1348766474,598501920,1348766474,598248958,0.439827906145,0.897465196118,0.029861385866,0.0146946373533,-0.0464854426682,-0.000227084106882,0.00202949671075,0.164714768529,0.101098589599,-10.1193580627
575,1348766474,607501983,1348766474,607218980,0.43930810501,0.897727527412,0.0296270056677,0.0146940781903,-0.0261876769364,-0.0168275926262,-0.113874822855,-0.0230395514518,-0.0696353912354,-9.83751964569
576,1348766474,618554115,1348766474,618217945,0.439008751077,0.897864157836,0.029833730336,0.0148734355311,-0.0393383800983,0.0161012653261,-0.0654969140887,-0.0143445404246,-0.000255155318882,-9.99316215515
577,1348766474,627579927,1348766474,627209901,0.439189887402,0.897780540306,0.0297369724476,0.0147667437573,-0.0416096448898,0.00924217049032,0.0433848127723,-0.19116269052,0.148614376783,-9.21179103851
578,1348766474,638595104,1348766474,638245105,0.439502410185,0.897629811299,0.0297010626591,0.0147037473025,-0.028241770342,0.00784777570516,0.0466861948371,0.555564045906,0.165305450559,-9.76556396484
579,1348766474,647459983,1348766474,647180080,0.439444670118,0.897661220454,0.0296129517538,0.0146897340732,-0.0522318296134,-0.006448042579,-0.0103614488617,0.895640432835,-0.932963609695,-9.77890777588
580,1348766474,658536911,1348766474,658227920,0.439258281813,0.897743231899,0.0297925311978,0.0148881336465,-0.0492700375617,-0.02047393471,-0.0246243551373,-0.375852167606,0.261743783951,-10.0579957962
581,1348766474,667504072,1348766474,667218923,0.439179917976,0.89778885955,0.0295961385936,0.0148402120882,-0.028740754351,-0.00943290628493,-0.0154546285048,0.105460248888,0.910185158253,-10.6344947815
